Participant_ID,Trial_ID,Condition,Stimulus_Word,Stimulus_Color,Response_Key,Correct_Response,Reaction_Time_ms,Accuracy,Trial_Order,Feedback,Age,Gender,Session_Number
P0001,1.0,Incongruent,Green,Blue,Space,0.0,919.1131520682601,,1.0,None,36.0,M,1.0
P0002,2.0,Congruent,Red,Red,Space,1.0,232.63044317745067,1.0,2.0,None,23.0,M,1.0
P0003,3.0,Congruent,Green,Green,,1.0,177.8272460284471,1.0,3.0,None,31.0,M,1.0
P0004,4.0,Incongruent,Blue,Green,Space,0.0,900.4908135557631,0.0,4.0,,38.0,M,1.0
P0005,5.0,Neutral,Red,Red,Space,1.0,206.60009959673576,1.0,5.0,None,44.0,M,1.0
P0006,6.0,Congruent,Green,Red,Space,1.0,336.3789934033746,1.0,6.0,None,25.0,F,1.0
P0007,7.0,Congruent,Blue,Green,Space,1.0,227.78235039357767,1.0,7.0,None,20.0,M,1.0
P0008,8.0,Neutral,Green,Green,Space,0.0,402.6509207552874,0.0,8.0,None,29.0,F,1.0
P0009,9.0,Congruent,Yellow,Green,Space,1.0,316.6290126651304,1.0,9.0,None,18.0,M,1.0
P0010,10.0,Incongruent,Red,Yellow,Space,0.0,783.6722468048138,0.0,10.0,None,56.0,F,1.0
P0011,11.0,Neutral,Green,Red,Space,0.0,346.2444929258136,1.0,11.0,None,18.0,F,1.0
P0012,12.0,Congruent,Red,Red,Space,1.0,210.36233228406655,0.0,12.0,None,18.0,M,1.0
P0013,13.0,Neutral,Blue,Yellow,Space,0.0,340.030684092814,1.0,13.0,None,42.0,M,1.0
P0014,14.0,Neutral,Yellow,Blue,Space,0.0,225.88066901189708,1.0,14.0,None,30.0,F,1.0
P0015,15.0,Congruent,Red,Yellow,Space,1.0,204.34558134274184,1.0,15.0,None,23.0,M,1.0
P0016,16.0,Incongruent,Yellow,Green,Space,0.0,856.9122469630164,0.0,16.0,None,18.0,F,1.0
P0017,17.0,Neutral,Blue,Red,Space,1.0,293.2148687943307,1.0,17.0,None,24.0,M,1.0
P0018,18.0,Neutral,Yellow,Blue,Space,0.0,168.28376874055596,1.0,18.0,None,22.0,F,1.0
P0019,19.0,Congruent,Yellow,Yellow,Space,1.0,151.27993255056904,1.0,19.0,None,37.0,M,1.0
P0020,20.0,Congruent,Blue,Green,Space,1.0,403.6584834182716,1.0,20.0,None,52.0,F,1.0
P0001,21.0,Neutral,Green,Green,Space,,245.3590681959721,0.0,21.0,None,36.0,M,1.0
P0002,22.0,Incongruent,Blue,Yellow,Space,0.0,671.735694568132,0.0,22.0,None,23.0,M,1.0
P0003,23.0,Incongruent,Green,Red,Space,0.0,414.80506325251963,1.0,23.0,None,31.0,M,1.0
P0004,24.0,Incongruent,,Green,Space,0.0,622.243248647864,1.0,24.0,None,38.0,M,1.0
P0005,25.0,,Green,Green,Space,1.0,297.7249240721701,1.0,25.0,None,44.0,M,1.0
P0006,26.0,Incongruent,Blue,Red,Space,0.0,872.1205491890065,1.0,,None,25.0,F,
P0007,27.0,Neutral,Green,Green,Space,0.0,501.02372518846687,1.0,27.0,None,20.0,M,1.0
P0008,28.0,Congruent,Blue,Blue,Space,1.0,200.69803986856235,1.0,,None,29.0,F,1.0
P0009,29.0,Neutral,Yellow,Yellow,Space,0.0,393.5858123687972,1.0,29.0,None,18.0,M,1.0
P0010,30.0,Neutral,Red,Blue,,1.0,389.5520881510104,1.0,30.0,None,56.0,F,1.0
P0011,31.0,Congruent,Red,Red,Space,1.0,159.68683817122349,,31.0,None,18.0,F,1.0
P0012,32.0,Neutral,Yellow,Green,Space,0.0,204.52013256710032,1.0,32.0,None,18.0,M,1.0
P0013,33.0,Incongruent,Green,Red,Space,0.0,1007.5792848274534,0.0,33.0,None,42.0,M,1.0
P0014,34.0,Congruent,Green,Red,Space,1.0,226.40133800877857,1.0,34.0,None,30.0,,1.0
P0015,35.0,Neutral,Green,Blue,Space,1.0,431.6846380688569,1.0,35.0,None,23.0,M,1.0
P0016,36.0,Incongruent,Yellow,Red,Space,0.0,1227.749284547995,1.0,36.0,None,18.0,F,1.0
P0017,37.0,Congruent,Red,Red,Space,1.0,466.4769106012292,1.0,37.0,None,24.0,M,1.0
P0018,38.0,Congruent,Green,Blue,Space,1.0,216.6101766900419,1.0,38.0,None,22.0,F,1.0
P0019,39.0,Neutral,Red,Red,Space,0.0,463.17651698792326,1.0,39.0,None,37.0,M,1.0
P0020,40.0,Neutral,Yellow,Red,Space,0.0,545.0275041673023,0.0,40.0,None,52.0,F,1.0
P0001,41.0,Neutral,Green,Yellow,Space,0.0,262.3281843400251,1.0,41.0,None,36.0,M,1.0
P0002,42.0,Neutral,Green,Red,Space,1.0,301.67481524040625,1.0,42.0,None,23.0,M,1.0
P0003,43.0,Neutral,Blue,Green,Space,1.0,341.8752824949897,1.0,43.0,None,31.0,M,1.0
P0004,44.0,Congruent,Red,Green,Space,1.0,230.14443228202026,1.0,44.0,None,38.0,M,1.0
P0005,45.0,Incongruent,Yellow,Yellow,Space,0.0,663.7365728255173,1.0,45.0,None,44.0,M,1.0
P0006,46.0,Incongruent,Green,Blue,Space,0.0,726.1276601735029,1.0,46.0,None,25.0,F,1.0
P0007,47.0,Congruent,Yellow,Blue,Space,1.0,222.40961441058587,1.0,,None,20.0,M,1.0
P0008,48.0,Neutral,Green,Blue,Space,0.0,221.85410452419288,0.0,48.0,None,29.0,F,1.0
P0009,1.0,Incongruent,Yellow,Green,,0.0,330.53969961242257,1.0,1.0,None,18.0,M,2.0
P0010,2.0,Congruent,Red,Green,Space,1.0,284.798611438288,1.0,2.0,None,56.0,F,2.0
P0011,3.0,Neutral,Blue,Green,Space,0.0,704.3659092159562,0.0,3.0,None,18.0,F,2.0
P0012,4.0,Incongruent,Red,Red,Space,0.0,973.4729492295284,1.0,4.0,None,18.0,M,2.0
,5.0,Incongruent,Green,Red,Space,0.0,484.17428272113943,1.0,5.0,None,42.0,M,2.0
P0014,6.0,Incongruent,Red,Yellow,Space,0.0,215.5563365248558,1.0,6.0,None,30.0,F,2.0
P0015,7.0,Congruent,Blue,Red,Space,1.0,326.3822022299667,1.0,7.0,None,23.0,M,2.0
P0016,8.0,Incongruent,Green,Red,Space,0.0,948.3959752003946,1.0,8.0,None,18.0,F,2.0
P0017,9.0,Congruent,Green,Green,Space,1.0,194.83816598517632,1.0,9.0,None,24.0,M,2.0
P0018,10.0,Incongruent,Green,Green,Space,0.0,775.8624314559038,1.0,10.0,None,22.0,F,2.0
P0019,11.0,Neutral,Green,Green,Space,1.0,214.6087979832373,1.0,11.0,None,37.0,M,2.0
P0020,12.0,Congruent,Green,Blue,Space,1.0,271.849940918966,1.0,12.0,None,52.0,F,2.0
P0001,13.0,Congruent,Yellow,Green,,,346.6598821285082,1.0,13.0,None,36.0,M,2.0
P0002,14.0,Neutral,Blue,Blue,Space,0.0,243.36000086000405,1.0,14.0,None,23.0,M,2.0
P0003,15.0,Incongruent,Yellow,Green,Space,0.0,883.3163783319038,0.0,15.0,None,31.0,M,2.0
P0004,16.0,Neutral,Blue,Blue,Space,0.0,210.48363851421178,1.0,16.0,None,38.0,M,2.0
P0005,17.0,Incongruent,Yellow,Green,Space,0.0,468.8666782172581,1.0,17.0,None,44.0,M,2.0
P0006,18.0,Incongruent,Green,Blue,Space,0.0,591.4561043615788,0.0,18.0,None,25.0,F,2.0
P0007,19.0,Neutral,Yellow,Red,Space,0.0,503.27864450096394,1.0,19.0,None,20.0,M,2.0
P0008,20.0,Congruent,Red,Red,Space,1.0,252.12810032055185,1.0,20.0,None,29.0,F,2.0
P0009,21.0,Incongruent,Red,Yellow,Space,0.0,450.5711287631827,1.0,21.0,None,18.0,M,2.0
P0010,22.0,Congruent,Blue,Blue,Space,1.0,257.3641459452893,1.0,22.0,None,56.0,F,2.0
P0011,23.0,Incongruent,Blue,Red,Space,0.0,502.34494102927226,0.0,23.0,None,18.0,F,2.0
P0012,24.0,Congruent,Blue,Blue,Space,1.0,333.98467678911334,1.0,24.0,None,18.0,M,2.0
P0013,25.0,Neutral,Blue,Yellow,Space,0.0,453.6135765099308,,25.0,None,42.0,M,2.0
P0014,26.0,Neutral,Blue,Green,Space,1.0,169.2939991906718,1.0,26.0,None,30.0,F,2.0
P0015,27.0,Congruent,Red,Yellow,Space,1.0,225.88215261121357,1.0,27.0,None,23.0,M,2.0
P0016,28.0,Incongruent,Yellow,Red,Space,0.0,1397.0738527648384,1.0,28.0,None,18.0,F,2.0
P0017,29.0,Neutral,Blue,Green,Space,0.0,579.2175355296536,1.0,29.0,None,24.0,M,2.0
P0018,30.0,Neutral,Red,Red,Space,0.0,368.09669254761394,1.0,30.0,None,22.0,F,2.0
P0019,31.0,Neutral,Yellow,Blue,Space,,257.01687758400766,1.0,31.0,None,37.0,M,2.0
P0020,32.0,Congruent,Green,Yellow,Space,1.0,205.42483790690008,1.0,32.0,None,52.0,F,2.0
P0001,33.0,Congruent,Yellow,Blue,Space,1.0,210.5910805371185,1.0,33.0,None,36.0,M,2.0
P0002,34.0,Incongruent,Yellow,Green,Space,0.0,444.9799735392683,0.0,34.0,None,23.0,M,2.0
P0003,35.0,Incongruent,,Red,Space,0.0,306.99725237868466,1.0,35.0,None,31.0,M,2.0
P0004,36.0,Congruent,Green,Yellow,Space,1.0,253.69658757581254,1.0,36.0,None,38.0,M,2.0
P0005,37.0,Incongruent,Green,Blue,Space,0.0,1032.0520306323297,1.0,37.0,None,44.0,M,2.0
P0006,38.0,Neutral,Red,Blue,Space,0.0,389.99137319729607,0.0,38.0,None,25.0,F,2.0
P0007,39.0,Incongruent,Green,Blue,Space,0.0,341.6909530812094,1.0,39.0,None,20.0,M,2.0
P0008,40.0,Neutral,Blue,Red,Space,0.0,347.85065443294195,1.0,40.0,None,29.0,F,2.0
P0009,41.0,Congruent,Green,Red,Space,1.0,171.3844058384536,1.0,41.0,None,18.0,M,2.0
P0010,42.0,Incongruent,Blue,Green,Space,0.0,830.5786549937233,1.0,42.0,None,56.0,F,2.0
P0011,43.0,,Blue,Red,Space,1.0,521.2094645412652,1.0,43.0,None,18.0,F,2.0
P0012,44.0,Congruent,Green,Blue,Space,1.0,260.61639495059956,1.0,44.0,None,18.0,M,2.0
P0013,45.0,Incongruent,Green,Red,Space,0.0,480.4797910224417,0.0,45.0,None,42.0,M,2.0
P0014,46.0,Incongruent,Red,Green,Space,0.0,665.5212379676678,1.0,46.0,None,30.0,F,2.0
P0015,47.0,Neutral,Red,Red,Space,0.0,284.5841044423785,1.0,47.0,None,23.0,M,2.0
P0016,48.0,Incongruent,Blue,Yellow,Space,0.0,298.5658329507708,0.0,48.0,None,18.0,F,2.0
P0017,1.0,Incongruent,Red,Green,Space,0.0,1216.5376185947885,1.0,1.0,None,24.0,M,3.0
P0018,2.0,Incongruent,Red,Red,Space,0.0,494.2262419139187,0.0,2.0,None,22.0,F,3.0
P0019,3.0,Neutral,Green,Green,Space,1.0,233.86948115692704,1.0,3.0,None,37.0,M,3.0
P0020,4.0,Incongruent,Yellow,Red,Space,0.0,713.3851360611628,0.0,4.0,None,52.0,F,3.0
P0001,5.0,Incongruent,Green,Yellow,,0.0,585.196364431733,1.0,5.0,None,36.0,M,3.0
P0002,6.0,Congruent,Red,Blue,Space,1.0,200.10023392286212,1.0,6.0,None,23.0,M,3.0
P0003,7.0,Neutral,Red,Blue,Space,0.0,322.950624966739,1.0,7.0,None,31.0,M,3.0
P0004,8.0,Neutral,Yellow,Yellow,Space,0.0,269.64396924621815,1.0,8.0,None,38.0,M,3.0
P0005,9.0,Congruent,Blue,Red,Space,1.0,228.1974167612112,1.0,9.0,None,44.0,M,3.0
P0006,10.0,Incongruent,Green,Blue,Space,0.0,1140.1133834287311,0.0,10.0,None,25.0,F,3.0
P0007,11.0,Incongruent,Blue,Blue,Space,0.0,856.4962689424036,1.0,11.0,None,20.0,M,3.0
P0008,12.0,Neutral,Red,Green,Space,0.0,484.61199016871984,1.0,12.0,None,29.0,F,3.0
P0009,13.0,Congruent,Green,Green,Space,1.0,216.80203929947166,1.0,13.0,None,18.0,M,3.0
P0010,14.0,Congruent,Green,Blue,Space,1.0,335.4727048025668,1.0,14.0,None,56.0,F,3.0
P0011,15.0,Neutral,Yellow,Green,Space,0.0,309.1472140302589,1.0,15.0,None,18.0,F,3.0
P0012,16.0,Neutral,Red,Red,,1.0,368.57107093811436,1.0,16.0,None,18.0,M,3.0
P0013,17.0,Congruent,Red,Red,Space,1.0,279.4247790010238,1.0,17.0,None,42.0,M,3.0
P0014,18.0,Neutral,Yellow,Red,Space,0.0,377.3800680407906,1.0,18.0,None,30.0,F,3.0
P0015,19.0,Incongruent,Green,Red,Space,0.0,450.3875352278552,0.0,19.0,None,23.0,M,3.0
P0016,20.0,Neutral,Blue,Green,Space,0.0,323.31296754906515,0.0,20.0,None,18.0,F,3.0
P0017,21.0,Congruent,Red,Yellow,Space,1.0,277.4540585439508,1.0,21.0,None,24.0,M,3.0
P0018,22.0,Neutral,Green,Blue,Space,0.0,315.5529098637445,0.0,22.0,None,22.0,F,3.0
P0019,23.0,Incongruent,Red,Blue,Space,0.0,1186.895574372979,,23.0,None,37.0,M,3.0
P0020,24.0,Incongruent,Green,Green,Space,0.0,427.4868500223194,1.0,24.0,None,52.0,F,3.0
,25.0,Congruent,Yellow,Red,Space,1.0,118.06978689111098,1.0,25.0,,36.0,M,3.0
P0002,26.0,Congruent,Blue,Blue,Space,1.0,359.6876205039226,1.0,26.0,None,23.0,M,3.0
P0003,27.0,Neutral,Blue,Green,Space,1.0,327.5046557564753,1.0,27.0,None,31.0,M,3.0
P0004,28.0,Neutral,Yellow,Red,Space,0.0,246.80789991095463,1.0,28.0,None,38.0,M,3.0
P0005,29.0,Incongruent,Red,Red,Space,0.0,752.0296972968289,1.0,29.0,None,44.0,M,3.0
P0006,30.0,Neutral,Green,Red,Space,0.0,251.76823508829983,1.0,30.0,None,25.0,F,3.0
P0007,31.0,Neutral,Blue,Red,Space,1.0,212.38225053712975,1.0,31.0,None,20.0,M,3.0
P0008,32.0,Congruent,Red,Blue,Space,1.0,132.71369721123688,1.0,32.0,None,29.0,F,3.0
P0009,33.0,Incongruent,Red,Yellow,Space,0.0,939.29539456596,0.0,33.0,None,18.0,M,3.0
P0010,34.0,Incongruent,Red,Green,Space,0.0,911.3347439399479,1.0,34.0,None,56.0,F,3.0
P0011,35.0,Neutral,Blue,Green,Space,0.0,324.44272183688577,1.0,35.0,,,F,3.0
P0012,36.0,Neutral,Green,Yellow,Space,0.0,274.4213114281001,1.0,36.0,None,18.0,M,3.0
P0013,37.0,Incongruent,Green,Red,Space,0.0,541.1963970870175,0.0,37.0,None,42.0,M,3.0
P0014,38.0,Incongruent,Blue,Blue,Space,0.0,577.7551102083456,1.0,38.0,None,30.0,F,3.0
P0015,39.0,Congruent,Green,Blue,Space,1.0,233.09566651031147,1.0,39.0,None,23.0,M,3.0
,,Congruent,Green,Red,Space,1.0,191.18718968652365,1.0,40.0,None,18.0,F,3.0
,41.0,Congruent,Green,Blue,Space,1.0,205.94850031637327,1.0,41.0,None,24.0,M,3.0
P0018,42.0,Incongruent,Yellow,Green,,0.0,732.6245996114724,0.0,42.0,None,22.0,F,3.0
P0019,43.0,Neutral,Red,Yellow,Space,0.0,402.28353903986766,1.0,43.0,None,37.0,M,3.0
P0020,44.0,Congruent,Blue,Red,Space,1.0,208.67454106420743,1.0,44.0,None,52.0,F,3.0
P0001,45.0,Congruent,Blue,Red,Space,1.0,161.61137148437464,1.0,45.0,None,36.0,M,3.0
P0002,46.0,Congruent,Green,Green,Space,1.0,299.28412903752263,1.0,46.0,None,23.0,M,3.0
P0003,47.0,Congruent,Green,Red,Space,1.0,270.9774364191128,1.0,47.0,None,31.0,M,3.0
P0004,48.0,Incongruent,Red,Yellow,Space,0.0,467.48121563419267,0.0,48.0,None,38.0,M,3.0
P0005,1.0,Congruent,Yellow,Green,Space,1.0,221.57296240812008,1.0,1.0,None,44.0,M,1.0
P0006,2.0,Neutral,Red,Yellow,Space,0.0,228.88870958284468,1.0,2.0,None,25.0,F,1.0
P0007,3.0,Neutral,Green,Blue,Space,1.0,271.75726991684047,1.0,3.0,None,20.0,M,1.0
P0008,,Congruent,Green,Yellow,Space,1.0,256.2327972868019,1.0,4.0,None,29.0,F,1.0
P0009,5.0,Congruent,Blue,Green,Space,1.0,311.80986037859594,1.0,5.0,None,18.0,M,1.0
P0010,6.0,Congruent,,,Space,1.0,213.10472955506745,1.0,6.0,None,56.0,F,1.0
P0011,7.0,Neutral,Blue,Red,Space,0.0,389.3274968150191,1.0,7.0,None,18.0,F,1.0
P0012,8.0,Congruent,Red,Blue,Space,1.0,339.0773260063602,1.0,8.0,None,18.0,M,1.0
P0013,9.0,Congruent,Red,Blue,Space,1.0,244.75886761776158,1.0,9.0,None,42.0,M,1.0
P0014,10.0,Congruent,Yellow,Red,Space,1.0,211.8873518861331,1.0,,None,30.0,F,1.0
P0015,11.0,Incongruent,Green,Red,Space,0.0,454.3554297138106,,11.0,None,23.0,M,1.0
P0016,12.0,Incongruent,Green,Green,Space,0.0,744.2454787005967,1.0,12.0,None,18.0,F,1.0
P0017,13.0,Neutral,Yellow,Yellow,Space,1.0,460.4871760173551,1.0,13.0,None,24.0,M,1.0
P0018,14.0,Incongruent,Blue,Yellow,Space,0.0,983.1347420427091,0.0,14.0,None,22.0,F,1.0
P0019,15.0,Incongruent,Red,Yellow,Space,0.0,807.7168978444917,1.0,15.0,None,37.0,M,1.0
P0020,16.0,Neutral,Yellow,Green,Space,0.0,305.9120638581674,1.0,16.0,None,52.0,F,1.0
,17.0,Congruent,Blue,Green,Space,1.0,270.43815078210685,1.0,17.0,None,36.0,M,1.0
P0002,18.0,Congruent,Yellow,Red,Space,1.0,332.7961883992355,1.0,,None,23.0,M,1.0
P0003,19.0,Neutral,Red,Green,Space,0.0,331.64376599776097,1.0,19.0,None,31.0,M,1.0
P0004,20.0,Neutral,Green,Red,Space,0.0,307.6770360025371,1.0,20.0,None,38.0,M,1.0
P0005,21.0,Neutral,Red,Red,Space,0.0,418.738514395095,0.0,21.0,None,44.0,M,1.0
P0006,22.0,Incongruent,Blue,Blue,Space,0.0,553.7436946777099,1.0,22.0,None,25.0,F,1.0
P0007,23.0,Congruent,Blue,Blue,Space,1.0,214.37512833624166,1.0,23.0,None,20.0,M,1.0
P0008,24.0,Neutral,Red,Yellow,Space,0.0,274.77906789815154,1.0,24.0,None,29.0,F,1.0
P0009,25.0,Congruent,Red,Blue,Space,1.0,377.80820605946343,,25.0,None,18.0,M,1.0
P0010,26.0,Congruent,Blue,Yellow,Space,1.0,184.60964627257377,,26.0,None,56.0,F,1.0
P0011,27.0,Congruent,Green,Blue,Space,1.0,330.2582876997638,1.0,27.0,None,18.0,F,1.0
P0012,28.0,Neutral,Red,Blue,,1.0,481.62029032961163,1.0,28.0,None,18.0,M,1.0
P0013,29.0,Incongruent,Yellow,Yellow,Space,0.0,400.65757694935803,1.0,29.0,None,42.0,M,1.0
P0014,30.0,Incongruent,Red,Yellow,Space,0.0,1435.5605956733825,1.0,30.0,None,30.0,F,1.0
P0015,31.0,Congruent,Blue,Red,Space,1.0,189.1907944237065,1.0,31.0,None,23.0,M,1.0
P0016,32.0,Neutral,Green,Blue,Space,1.0,518.4448366305606,1.0,32.0,None,18.0,F,1.0
P0017,33.0,Congruent,Green,Red,Space,1.0,170.49728170940327,0.0,33.0,None,24.0,M,1.0
P0018,34.0,Congruent,Yellow,Blue,Space,1.0,306.4863234741386,1.0,34.0,None,22.0,F,1.0
P0019,35.0,Congruent,Yellow,Yellow,Space,1.0,193.06542988601112,1.0,35.0,None,37.0,M,1.0
P0020,36.0,Congruent,Red,Red,Space,1.0,337.86633583012,1.0,36.0,None,52.0,F,
P0001,37.0,Congruent,Green,Yellow,Space,1.0,118.3820195844665,1.0,37.0,None,36.0,M,1.0
P0002,38.0,Incongruent,Blue,Blue,Space,0.0,505.6625308885373,0.0,38.0,None,23.0,M,1.0
P0003,39.0,Neutral,Blue,Yellow,Space,1.0,355.1185190665591,1.0,39.0,None,31.0,M,1.0
P0004,40.0,Congruent,Green,Yellow,Space,1.0,135.01256065594825,1.0,40.0,None,38.0,M,1.0
P0005,41.0,Incongruent,Blue,Red,Space,0.0,1066.4087770335855,1.0,41.0,None,44.0,M,1.0
P0006,42.0,Neutral,Blue,Green,Space,0.0,352.4846429916448,1.0,42.0,None,25.0,F,1.0
P0007,43.0,Neutral,Blue,Green,Space,1.0,245.63496568716604,1.0,43.0,None,20.0,M,1.0
P0008,44.0,Congruent,Red,Yellow,Space,1.0,313.302844573228,1.0,44.0,None,29.0,F,1.0
P0009,45.0,Incongruent,Blue,Blue,Space,0.0,622.2007647230879,1.0,45.0,,18.0,M,1.0
P0010,46.0,Neutral,Blue,Green,Space,1.0,294.3996558837327,0.0,46.0,None,56.0,F,1.0
P0011,47.0,Incongruent,Green,Blue,Space,0.0,545.9160196042386,0.0,47.0,None,18.0,F,1.0
P0012,48.0,Neutral,Yellow,Green,Space,1.0,367.9409632091142,1.0,48.0,None,18.0,M,1.0
P0013,1.0,Neutral,Green,Green,Space,1.0,303.5020094562444,1.0,1.0,None,42.0,M,2.0
P0014,2.0,Neutral,Green,Green,Space,1.0,552.651309490229,1.0,2.0,None,30.0,F,2.0
P0015,3.0,Incongruent,Yellow,Red,Space,0.0,544.3477775252394,1.0,3.0,None,23.0,M,2.0
P0016,4.0,Congruent,Red,,Space,1.0,196.41909542288641,1.0,4.0,None,18.0,F,2.0
P0017,5.0,Congruent,Red,Green,Space,1.0,267.81610122247116,1.0,5.0,None,24.0,M,2.0
P0018,6.0,Incongruent,Yellow,Green,Space,0.0,367.7787233267345,0.0,6.0,None,22.0,F,2.0
P0019,7.0,Congruent,Blue,Red,Space,1.0,260.60096679546393,1.0,7.0,None,37.0,M,2.0
P0020,8.0,Incongruent,Green,,Space,0.0,309.9831939554847,1.0,8.0,None,52.0,F,2.0
P0001,9.0,Neutral,Yellow,Blue,Space,1.0,252.15098864272184,1.0,,None,36.0,M,2.0
P0002,10.0,Congruent,Green,Red,Space,1.0,315.17184945192076,1.0,10.0,None,23.0,M,2.0
P0003,,Neutral,Blue,Red,Space,0.0,229.54773403484998,1.0,11.0,None,31.0,M,2.0
P0004,12.0,Neutral,Green,Yellow,Space,0.0,491.2235421728115,0.0,12.0,None,38.0,M,2.0
P0005,13.0,Neutral,Red,Blue,Space,0.0,236.56035567532652,1.0,13.0,None,44.0,M,2.0
P0006,14.0,Neutral,Blue,Red,Space,1.0,351.3288999762404,1.0,14.0,None,25.0,F,2.0
P0007,15.0,Incongruent,Green,Yellow,Space,0.0,537.2971061357032,1.0,15.0,None,20.0,M,2.0
P0008,,Incongruent,Yellow,Blue,Space,0.0,466.4047037039023,0.0,16.0,None,29.0,F,2.0
P0009,17.0,Incongruent,Red,Blue,Space,0.0,665.6171745316962,0.0,17.0,None,18.0,M,2.0
P0010,18.0,Incongruent,Yellow,Blue,Space,0.0,639.5234419652103,0.0,18.0,None,56.0,F,2.0
P0011,19.0,Neutral,Blue,Green,Space,0.0,553.2869189129254,1.0,19.0,None,18.0,F,2.0
P0012,20.0,Congruent,Red,Yellow,Space,1.0,245.11604755246034,1.0,20.0,None,18.0,M,2.0
P0013,21.0,Neutral,Red,Blue,Space,0.0,375.19181402148826,0.0,21.0,None,42.0,M,2.0
P0014,22.0,Incongruent,Green,Green,Space,0.0,587.7967557473595,1.0,22.0,None,30.0,F,2.0
P0015,23.0,Incongruent,Yellow,Red,Space,0.0,873.9686598742862,1.0,23.0,None,23.0,M,2.0
P0016,24.0,Neutral,Yellow,Blue,Space,1.0,288.35703903707525,1.0,24.0,None,18.0,F,2.0
P0017,25.0,Incongruent,Blue,Red,Space,0.0,589.1058268365009,1.0,25.0,None,24.0,M,2.0
P0018,26.0,Neutral,Red,Red,Space,1.0,563.4192906979981,0.0,26.0,None,22.0,F,2.0
P0019,27.0,Congruent,Blue,Red,Space,1.0,225.89022099216106,1.0,27.0,None,37.0,M,2.0
P0020,28.0,Incongruent,Yellow,Blue,Space,0.0,1376.2478825756584,1.0,28.0,None,52.0,F,2.0
P0001,29.0,Incongruent,Yellow,Blue,Space,0.0,730.6653992495783,1.0,29.0,None,,M,2.0
P0002,30.0,Incongruent,Blue,Green,Space,0.0,699.7159536803747,1.0,30.0,None,23.0,M,2.0
P0003,31.0,Congruent,Blue,Green,Space,1.0,288.0855924777465,1.0,31.0,None,31.0,M,2.0
P0004,32.0,Congruent,Blue,Green,Space,1.0,198.67767476088218,1.0,32.0,None,38.0,M,2.0
P0005,33.0,Congruent,Blue,Blue,Space,1.0,250.40588864742378,0.0,33.0,None,44.0,M,2.0
P0006,34.0,Incongruent,Blue,Blue,Space,0.0,444.27430843014173,0.0,34.0,None,25.0,F,2.0
P0007,35.0,Neutral,Blue,Blue,,,319.60957156334644,1.0,35.0,None,20.0,M,2.0
,36.0,Congruent,Blue,Yellow,Space,1.0,379.58847072271584,1.0,36.0,None,29.0,F,2.0
P0009,37.0,Congruent,Green,Yellow,Space,1.0,237.44323343495336,0.0,37.0,,18.0,M,2.0
P0010,38.0,Incongruent,Red,Blue,Space,0.0,361.11955774453014,1.0,38.0,None,56.0,F,2.0
P0011,39.0,Congruent,Green,Red,Space,1.0,227.50090717755035,1.0,39.0,None,18.0,F,2.0
P0012,40.0,Neutral,Green,Blue,Space,1.0,294.92576089506406,1.0,40.0,None,18.0,M,2.0
P0013,41.0,Incongruent,Green,Green,Space,,1135.270859201919,0.0,41.0,None,42.0,M,2.0
P0014,42.0,Congruent,Red,Yellow,Space,1.0,186.01176580809636,1.0,42.0,None,30.0,F,2.0
P0015,43.0,Congruent,Blue,Yellow,Space,1.0,296.2192357129578,1.0,43.0,None,23.0,M,2.0
P0016,44.0,Incongruent,Red,Yellow,Space,0.0,632.6531186609701,0.0,44.0,None,18.0,F,2.0
P0017,45.0,Congruent,Red,Blue,Space,1.0,177.47382013509238,1.0,45.0,None,24.0,M,2.0
,46.0,Neutral,Green,Red,Space,0.0,593.361450519676,1.0,46.0,None,22.0,F,2.0
P0019,47.0,Congruent,Blue,Yellow,Space,1.0,356.50082177098926,1.0,47.0,None,37.0,M,2.0
P0020,48.0,Incongruent,Green,Yellow,Space,0.0,1037.4778779962776,0.0,48.0,None,52.0,F,2.0
P0001,1.0,Congruent,Yellow,Green,Space,1.0,195.82640494192168,1.0,1.0,None,36.0,M,3.0
P0002,2.0,Congruent,Green,Red,Space,1.0,,1.0,2.0,None,23.0,M,3.0
P0003,3.0,Neutral,Green,Green,Space,1.0,490.75497863831055,1.0,3.0,None,31.0,M,3.0
P0004,4.0,Congruent,Blue,Blue,Space,1.0,216.5526157789516,1.0,4.0,None,38.0,M,3.0
P0005,5.0,Neutral,Green,Green,Space,0.0,258.09769289916073,1.0,5.0,None,44.0,M,3.0
P0006,6.0,Incongruent,Green,Red,Space,0.0,630.9509957797818,1.0,6.0,None,25.0,F,3.0
P0007,7.0,Incongruent,Red,Green,Space,0.0,,1.0,7.0,None,20.0,M,3.0
P0008,8.0,Congruent,Blue,Blue,Space,1.0,279.4965701653037,1.0,8.0,None,29.0,F,3.0
P0009,9.0,Congruent,Yellow,Blue,Space,1.0,165.77384254430285,1.0,9.0,None,18.0,M,3.0
P0010,10.0,Neutral,Blue,Red,Space,0.0,429.36218664400707,0.0,10.0,None,56.0,F,3.0
P0011,11.0,Incongruent,Blue,Yellow,Space,0.0,980.6762541712209,0.0,11.0,None,18.0,F,3.0
P0012,12.0,,Red,Blue,Space,0.0,409.8192622462626,1.0,12.0,None,18.0,M,3.0
P0013,13.0,Incongruent,Green,Blue,Space,0.0,620.9295670744945,1.0,13.0,None,42.0,M,3.0
P0014,14.0,Congruent,Green,Red,Space,1.0,391.03176554847556,1.0,14.0,None,30.0,F,3.0
P0015,15.0,Congruent,Green,Yellow,Space,1.0,518.8773007791868,1.0,15.0,None,23.0,M,3.0
P0016,16.0,Incongruent,Yellow,Red,Space,0.0,649.4236336346111,1.0,16.0,None,18.0,F,3.0
P0017,17.0,Neutral,Red,Yellow,Space,1.0,309.00331609559566,0.0,17.0,None,24.0,M,3.0
P0018,18.0,Neutral,Blue,Yellow,Space,1.0,269.84326261530066,1.0,18.0,None,22.0,F,3.0
P0019,19.0,Neutral,Green,Red,Space,1.0,422.8794751171536,1.0,19.0,None,37.0,M,3.0
P0020,20.0,Incongruent,Green,Blue,Space,0.0,393.56557857341903,1.0,20.0,None,52.0,F,3.0
P0001,21.0,Congruent,Blue,Red,Space,1.0,306.85074461601386,0.0,21.0,None,36.0,M,3.0
P0002,22.0,Congruent,Yellow,Green,Space,1.0,259.8575085756033,1.0,22.0,None,23.0,M,3.0
P0003,23.0,Incongruent,Blue,Yellow,Space,0.0,445.2795852649969,1.0,23.0,None,31.0,M,3.0
P0004,24.0,Incongruent,,Blue,Space,0.0,672.27615008618,0.0,24.0,None,38.0,M,3.0
P0005,25.0,Incongruent,Green,Blue,Space,0.0,980.3075752730851,1.0,25.0,None,44.0,M,3.0
P0006,26.0,Neutral,Red,Blue,Space,1.0,317.29111751907556,1.0,26.0,None,25.0,F,3.0
P0007,27.0,Congruent,Green,Green,Space,1.0,182.56071231184637,1.0,27.0,None,20.0,M,3.0
P0008,28.0,Congruent,Green,Yellow,Space,1.0,226.50083209487727,1.0,28.0,None,29.0,F,3.0
P0009,29.0,Incongruent,Red,Blue,Space,0.0,375.9612380728822,1.0,29.0,None,18.0,M,3.0
P0010,30.0,Neutral,Blue,Blue,Space,0.0,221.98023678816557,1.0,,None,56.0,,3.0
P0011,31.0,,Red,Green,Space,0.0,584.1279427639336,0.0,31.0,None,18.0,F,3.0
P0012,32.0,Neutral,Yellow,Yellow,Space,0.0,404.12114585235577,0.0,32.0,None,18.0,M,3.0
P0013,33.0,Neutral,Yellow,Green,,1.0,207.94084657360216,1.0,33.0,None,42.0,M,3.0
P0014,34.0,Incongruent,Yellow,Blue,Space,0.0,410.1220989943743,1.0,34.0,None,30.0,F,3.0
P0015,35.0,Congruent,Blue,Green,Space,1.0,230.27697595817165,1.0,35.0,None,23.0,M,3.0
P0016,36.0,Incongruent,Red,Blue,Space,0.0,715.8497419458886,1.0,36.0,None,18.0,F,3.0
P0017,37.0,Congruent,Red,Green,Space,1.0,225.14537587255438,1.0,37.0,None,,M,3.0
P0018,38.0,Incongruent,Red,Blue,Space,0.0,392.2977113897421,0.0,38.0,None,22.0,F,3.0
P0019,39.0,Incongruent,Yellow,Red,Space,0.0,553.4873563240133,1.0,39.0,None,37.0,,3.0
P0020,40.0,Congruent,Red,Green,Space,1.0,311.1424914254617,1.0,40.0,None,52.0,F,3.0
P0001,41.0,Neutral,Green,Yellow,Space,1.0,378.51922458934575,1.0,41.0,,36.0,M,3.0
P0002,42.0,Neutral,Red,Red,Space,1.0,452.62807934603075,1.0,42.0,None,23.0,M,3.0
P0003,43.0,Neutral,Red,Green,Space,0.0,391.8276346582811,0.0,43.0,None,,M,3.0
P0004,44.0,Incongruent,Red,Yellow,Space,0.0,763.9535844610514,1.0,44.0,None,38.0,M,3.0
P0005,45.0,Neutral,Yellow,Yellow,Space,0.0,325.14337120110645,,45.0,None,44.0,M,3.0
P0006,46.0,Congruent,Blue,Blue,Space,1.0,316.5529658792139,1.0,,None,25.0,F,3.0
P0007,47.0,Congruent,Green,Green,Space,1.0,321.8246710249687,1.0,47.0,None,20.0,M,3.0
P0008,48.0,Incongruent,Green,Green,Space,0.0,580.5144852340686,0.0,48.0,None,29.0,F,3.0
P0009,1.0,Congruent,Blue,Red,Space,1.0,302.52362105512236,1.0,1.0,None,18.0,M,1.0
P0010,2.0,Congruent,Red,Red,Space,1.0,114.4040480799968,1.0,2.0,None,56.0,F,1.0
P0011,3.0,Neutral,Blue,Yellow,Space,0.0,134.595615900495,1.0,3.0,None,18.0,F,1.0
P0012,4.0,Neutral,Blue,,Space,0.0,505.4385952317684,1.0,4.0,None,18.0,M,1.0
P0013,5.0,Neutral,Red,Yellow,Space,0.0,294.9912082460689,1.0,5.0,None,42.0,M,1.0
P0014,6.0,Neutral,Yellow,Green,Space,0.0,413.1347403119536,1.0,6.0,None,30.0,F,1.0
P0015,7.0,Incongruent,Green,Green,Space,0.0,576.5592358137795,1.0,7.0,None,23.0,M,1.0
P0016,8.0,Neutral,Blue,Red,Space,0.0,401.3702070599373,1.0,8.0,None,18.0,F,1.0
P0017,9.0,Neutral,Red,Yellow,Space,0.0,435.4379950020539,1.0,9.0,None,24.0,M,1.0
P0018,10.0,Incongruent,Green,Green,Space,0.0,2364.3052625222595,0.0,10.0,None,22.0,F,1.0
P0019,11.0,Incongruent,Red,Blue,Space,0.0,744.4739728513016,1.0,11.0,None,37.0,M,1.0
P0020,12.0,,Red,Yellow,Space,1.0,,1.0,,None,52.0,F,1.0
P0001,13.0,Congruent,Green,Yellow,Space,1.0,267.0201929830233,1.0,13.0,None,36.0,M,1.0
P0002,14.0,Neutral,Green,Yellow,Space,0.0,220.95905023986745,1.0,14.0,None,23.0,M,1.0
P0003,15.0,Neutral,Yellow,Blue,Space,1.0,570.1424018995053,1.0,15.0,None,31.0,M,1.0
P0004,16.0,Congruent,Yellow,Blue,Space,1.0,374.56618718294294,1.0,16.0,None,38.0,M,1.0
P0005,17.0,Congruent,Blue,Blue,Space,1.0,219.27247095156466,1.0,17.0,None,44.0,M,1.0
P0006,18.0,Incongruent,Yellow,Red,Space,0.0,1708.2136565758833,1.0,18.0,None,25.0,F,1.0
P0007,19.0,Congruent,Blue,Yellow,Space,1.0,341.73365698650554,1.0,19.0,None,20.0,M,1.0
P0008,20.0,Incongruent,Red,Green,Space,0.0,782.9197483697861,1.0,20.0,None,29.0,F,1.0
P0009,21.0,Congruent,Yellow,Yellow,Space,1.0,240.86994895919923,1.0,,None,18.0,M,1.0
,22.0,,Red,Red,Space,1.0,151.67036637512692,1.0,22.0,None,56.0,F,1.0
P0011,23.0,Incongruent,Yellow,Yellow,Space,0.0,843.04546058834,0.0,23.0,None,18.0,F,1.0
P0012,24.0,Neutral,Green,Green,Space,1.0,215.64725770296764,1.0,24.0,None,18.0,M,1.0
P0013,25.0,Neutral,Blue,Blue,Space,,276.95513445566786,0.0,25.0,None,42.0,,1.0
P0014,26.0,Congruent,Yellow,Yellow,Space,1.0,188.0976690364571,1.0,26.0,None,30.0,F,1.0
P0015,,Congruent,Blue,Blue,Space,,281.6943496455238,1.0,27.0,None,23.0,M,1.0
P0016,28.0,Neutral,Red,Yellow,Space,1.0,394.3781674972373,1.0,28.0,None,18.0,F,1.0
P0017,29.0,Neutral,Blue,Green,Space,1.0,376.5586637000065,1.0,29.0,None,24.0,M,1.0
P0018,30.0,Neutral,Yellow,Red,Space,1.0,323.64269525132005,1.0,30.0,None,22.0,F,1.0
P0019,31.0,Incongruent,Blue,Blue,Space,0.0,857.3073290926811,0.0,31.0,None,37.0,M,1.0
P0020,32.0,Congruent,Red,Blue,Space,1.0,316.65212306156883,1.0,32.0,None,52.0,F,1.0
P0001,33.0,Neutral,Green,Green,Space,0.0,202.8841826957665,1.0,33.0,None,36.0,M,1.0
P0002,34.0,Congruent,Yellow,Red,Space,1.0,334.7363899864197,1.0,34.0,None,23.0,M,1.0
P0003,35.0,Congruent,Green,Yellow,Space,1.0,174.3956287535444,1.0,35.0,None,31.0,M,1.0
P0004,36.0,Congruent,Yellow,Green,Space,1.0,224.52880293275769,1.0,36.0,None,38.0,M,1.0
P0005,37.0,Congruent,Blue,Green,Space,1.0,303.413415659222,1.0,37.0,None,44.0,M,1.0
P0006,38.0,Neutral,Red,Blue,Space,1.0,245.93958784075178,1.0,38.0,None,25.0,F,1.0
P0007,39.0,Neutral,Green,,Space,1.0,251.06959786739185,1.0,39.0,None,20.0,M,1.0
P0008,40.0,Incongruent,Blue,Red,Space,0.0,329.3186901955003,1.0,40.0,None,29.0,F,1.0
P0009,41.0,Congruent,Blue,Yellow,Space,1.0,287.57339979185156,1.0,41.0,None,18.0,M,1.0
P0010,42.0,Incongruent,Red,Green,Space,0.0,1232.8738775833272,1.0,42.0,None,56.0,F,1.0
P0011,43.0,Congruent,Blue,Red,Space,1.0,374.58792415915656,1.0,43.0,None,18.0,F,1.0
P0012,44.0,Incongruent,Green,Red,Space,0.0,2517.1492361445116,0.0,44.0,None,18.0,M,1.0
P0013,45.0,Congruent,Red,Yellow,Space,1.0,227.7048394433834,1.0,45.0,None,42.0,M,1.0
P0014,46.0,Congruent,Blue,Red,Space,1.0,257.90391915498566,1.0,46.0,None,30.0,F,1.0
P0015,47.0,Neutral,Blue,Green,Space,0.0,544.8462852257516,0.0,47.0,None,23.0,M,1.0
P0016,48.0,Incongruent,Green,,Space,0.0,886.1970424636438,0.0,48.0,None,18.0,F,1.0
P0017,1.0,Incongruent,Yellow,Red,,0.0,1253.3124760783664,0.0,,None,24.0,M,2.0
P0018,2.0,Neutral,Yellow,Yellow,Space,1.0,222.11420749251724,1.0,2.0,None,22.0,F,2.0
P0019,3.0,Congruent,Red,Yellow,Space,1.0,322.1739607217922,1.0,3.0,None,37.0,M,2.0
P0020,4.0,Neutral,Blue,Green,Space,0.0,472.5652809632106,1.0,4.0,None,52.0,F,2.0
P0001,5.0,Incongruent,Blue,Red,Space,0.0,212.61406614927068,0.0,,None,36.0,M,2.0
P0002,6.0,Neutral,Yellow,Yellow,Space,0.0,243.39463713101057,1.0,6.0,None,23.0,M,2.0
P0003,7.0,Congruent,Red,Blue,Space,1.0,264.8309344951031,1.0,7.0,None,31.0,M,2.0
P0004,8.0,Congruent,Red,Green,Space,1.0,343.97569155703616,1.0,8.0,None,38.0,M,2.0
P0005,9.0,Neutral,Blue,Blue,Space,0.0,509.145545616844,1.0,9.0,None,44.0,M,2.0
P0006,10.0,Neutral,Green,Yellow,Space,0.0,319.06689584087917,0.0,10.0,None,25.0,F,2.0
P0007,11.0,Incongruent,Blue,Red,Space,0.0,775.7107561689312,0.0,11.0,None,20.0,M,2.0
P0008,12.0,Congruent,Green,Green,Space,1.0,240.6616583357932,1.0,12.0,None,29.0,F,2.0
P0009,13.0,Congruent,Green,Green,Space,1.0,212.12405957778464,1.0,13.0,None,18.0,M,2.0
P0010,14.0,Incongruent,Red,Blue,Space,0.0,521.9326380792953,0.0,14.0,None,56.0,F,2.0
P0011,15.0,Neutral,Yellow,Yellow,Space,0.0,150.3442586236729,0.0,15.0,None,18.0,F,2.0
P0012,16.0,Neutral,Yellow,Green,Space,1.0,292.91611958543734,,16.0,None,18.0,M,2.0
P0013,17.0,Neutral,Red,Blue,Space,0.0,398.1306940468055,1.0,17.0,None,42.0,M,2.0
P0014,18.0,Incongruent,Blue,,Space,0.0,762.7074146959088,0.0,18.0,None,30.0,F,2.0
P0015,19.0,Congruent,Yellow,Green,Space,1.0,187.50955541263934,1.0,19.0,None,23.0,M,2.0
P0016,20.0,Congruent,Yellow,Blue,Space,1.0,267.0374018629814,1.0,20.0,None,18.0,F,2.0
P0017,21.0,Congruent,Blue,Blue,Space,1.0,302.2467699053598,1.0,21.0,None,24.0,M,2.0
P0018,22.0,Congruent,Red,Yellow,Space,1.0,512.7659888267941,1.0,22.0,None,22.0,F,2.0
P0019,23.0,Congruent,Red,Green,Space,1.0,191.67197917430596,1.0,23.0,None,37.0,M,2.0
P0020,24.0,Congruent,Blue,Yellow,Space,1.0,377.65122869996793,1.0,24.0,None,52.0,F,2.0
P0001,25.0,Incongruent,Blue,Red,Space,0.0,760.8801764228582,1.0,25.0,None,36.0,M,2.0
P0002,26.0,Neutral,Yellow,Blue,Space,0.0,250.12057435975808,1.0,26.0,None,23.0,M,2.0
P0003,27.0,Incongruent,Green,Red,Space,0.0,393.29540133980765,0.0,27.0,None,31.0,M,2.0
P0004,28.0,Neutral,Yellow,Blue,Space,1.0,422.826831808509,1.0,28.0,None,38.0,M,2.0
P0005,29.0,Incongruent,Red,Red,Space,0.0,949.1510214569721,1.0,29.0,None,44.0,M,2.0
P0006,30.0,Neutral,Yellow,Green,Space,1.0,173.0912442903019,1.0,30.0,None,25.0,F,2.0
P0007,31.0,Incongruent,Green,Green,Space,0.0,427.7036419640531,1.0,31.0,None,20.0,M,2.0
P0008,32.0,Neutral,Red,Green,Space,0.0,290.1185578164312,1.0,32.0,None,29.0,F,2.0
P0009,33.0,Congruent,Red,Red,Space,1.0,184.7804915506292,1.0,33.0,None,18.0,M,2.0
P0010,34.0,Incongruent,Blue,Red,Space,,443.0334825252683,1.0,34.0,None,56.0,F,2.0
P0011,35.0,Congruent,Green,Green,Space,1.0,344.10889511087987,1.0,35.0,None,18.0,F,2.0
P0012,36.0,Incongruent,Yellow,Red,Space,0.0,365.36663554929106,1.0,36.0,None,18.0,M,2.0
,37.0,Incongruent,Yellow,Blue,Space,0.0,1302.2865687670205,1.0,37.0,None,42.0,M,2.0
P0014,38.0,Neutral,Green,Red,Space,0.0,318.49493127934227,1.0,38.0,None,30.0,F,2.0
P0015,39.0,Congruent,Red,Green,Space,1.0,319.19127200395496,1.0,39.0,None,23.0,M,2.0
P0016,40.0,Incongruent,Green,Blue,Space,0.0,728.8637287043674,1.0,,None,18.0,F,2.0
P0017,,Neutral,Yellow,Green,Space,1.0,588.4617379812885,1.0,41.0,None,24.0,M,2.0
P0018,42.0,Incongruent,Green,Blue,Space,0.0,929.7734846906902,,42.0,None,22.0,F,2.0
P0019,43.0,Congruent,Red,Blue,Space,1.0,317.84687739841513,1.0,43.0,None,37.0,M,2.0
P0020,44.0,Congruent,Blue,Green,Space,1.0,401.23654805084584,1.0,44.0,None,52.0,F,2.0
P0001,45.0,Neutral,Red,Blue,,1.0,240.47721732137958,0.0,45.0,None,36.0,M,2.0
P0002,46.0,Incongruent,Yellow,Red,Space,0.0,1949.2359625868364,1.0,46.0,None,23.0,M,2.0
P0003,47.0,Neutral,Red,Yellow,Space,0.0,,1.0,47.0,None,31.0,M,2.0
P0004,48.0,Incongruent,Yellow,Yellow,Space,0.0,584.0208156078903,1.0,48.0,None,38.0,M,2.0
P0005,1.0,Congruent,Blue,Green,Space,1.0,300.3370469199625,1.0,1.0,None,44.0,M,3.0
P0006,2.0,Neutral,Blue,Blue,Space,0.0,247.67004697631128,1.0,2.0,None,25.0,F,3.0
P0007,3.0,,Blue,Yellow,Space,1.0,264.3325646718551,1.0,3.0,None,20.0,M,3.0
P0008,4.0,Neutral,Green,Green,Space,0.0,362.4781826132153,1.0,4.0,None,29.0,F,3.0
P0009,5.0,Neutral,Yellow,Red,Space,1.0,330.91612434775493,1.0,5.0,None,18.0,M,3.0
P0010,6.0,Neutral,Yellow,Blue,Space,0.0,231.56923108550066,1.0,6.0,None,56.0,F,3.0
P0011,7.0,Neutral,Yellow,Blue,Space,0.0,421.2886033828288,1.0,7.0,None,18.0,F,3.0
P0012,8.0,Incongruent,Red,Green,Space,0.0,743.958150824461,1.0,8.0,None,18.0,M,3.0
P0013,9.0,Congruent,Blue,Red,Space,1.0,174.54798227485685,1.0,9.0,None,42.0,M,3.0
P0014,10.0,Incongruent,Green,Red,Space,0.0,704.2729488282581,1.0,10.0,None,30.0,F,3.0
P0015,11.0,,Yellow,Blue,Space,1.0,269.01890270510813,0.0,11.0,None,23.0,M,3.0
P0016,12.0,Neutral,Red,Yellow,Space,0.0,508.2829731808576,1.0,12.0,None,18.0,F,3.0
P0017,13.0,,Red,Green,Space,0.0,195.44905775565633,0.0,13.0,None,24.0,M,3.0
P0018,14.0,,Yellow,Green,Space,0.0,1045.7199700423996,0.0,14.0,None,22.0,F,3.0
,15.0,Congruent,Blue,Blue,Space,1.0,393.9866590693296,1.0,15.0,None,37.0,M,3.0
P0020,16.0,Congruent,Red,Blue,Space,1.0,215.1375891285423,1.0,16.0,None,52.0,F,3.0
P0001,17.0,Incongruent,Green,Red,Space,0.0,899.1098829910836,1.0,17.0,None,36.0,M,3.0
P0002,18.0,Incongruent,Red,Red,Space,0.0,698.5781946885968,0.0,18.0,None,,M,3.0
P0003,19.0,Neutral,Green,Yellow,Space,1.0,323.1310964194963,1.0,19.0,None,31.0,M,3.0
P0004,20.0,,Green,Green,Space,1.0,274.2363998976706,1.0,20.0,None,38.0,M,3.0
P0005,21.0,Congruent,Green,Red,Space,1.0,224.7074162841555,1.0,21.0,None,44.0,M,3.0
P0006,22.0,Neutral,Blue,Yellow,Space,0.0,365.29480438475747,1.0,22.0,None,25.0,F,3.0
P0007,23.0,Neutral,Yellow,Yellow,Space,0.0,396.41785923115157,1.0,23.0,None,20.0,M,3.0
P0008,24.0,Incongruent,Yellow,Red,Space,,677.3357969638251,1.0,24.0,None,29.0,F,3.0
P0009,25.0,Neutral,Red,Red,Space,1.0,406.40150439906995,1.0,25.0,None,18.0,M,3.0
P0010,26.0,Neutral,Yellow,Red,Space,1.0,309.2612620333075,0.0,26.0,None,56.0,F,3.0
P0011,27.0,Incongruent,Red,Blue,Space,0.0,550.7771532036561,0.0,27.0,None,18.0,F,3.0
P0012,,Congruent,Blue,Red,Space,1.0,365.8497699245516,1.0,28.0,None,18.0,M,3.0
P0013,29.0,Neutral,Blue,Green,Space,1.0,215.51917454557272,1.0,29.0,None,42.0,M,3.0
P0014,30.0,Congruent,Red,Green,Space,1.0,172.85593081923082,1.0,30.0,None,30.0,F,3.0
P0015,31.0,Neutral,Red,Green,Space,1.0,245.80560795998485,1.0,31.0,None,23.0,M,3.0
P0016,32.0,Neutral,Blue,Red,Space,0.0,419.97331069222366,1.0,32.0,None,18.0,F,3.0
P0017,33.0,Neutral,Red,Blue,Space,0.0,167.30638496517435,1.0,33.0,None,24.0,M,3.0
P0018,34.0,Neutral,Yellow,Red,Space,1.0,254.91138325403324,1.0,34.0,None,22.0,F,
P0019,35.0,Neutral,Yellow,Red,Space,1.0,348.66038169477866,1.0,35.0,None,37.0,M,3.0
P0020,36.0,Incongruent,Blue,Green,Space,0.0,642.1300048567906,1.0,36.0,None,52.0,F,3.0
P0001,37.0,Incongruent,Blue,Blue,Space,0.0,982.0247612113794,1.0,37.0,None,36.0,M,3.0
P0002,38.0,Neutral,Red,Green,Space,1.0,506.11525513271283,1.0,38.0,None,23.0,M,3.0
P0003,39.0,Neutral,Red,Green,Space,0.0,315.5746656874704,1.0,39.0,None,31.0,M,3.0
,40.0,Incongruent,Red,Green,Space,0.0,686.7946122558287,1.0,40.0,None,38.0,M,3.0
P0005,41.0,Incongruent,Blue,Red,Space,0.0,650.6416121132263,1.0,41.0,None,44.0,M,3.0
P0006,42.0,Incongruent,Red,Yellow,Space,0.0,638.6945657194551,1.0,42.0,None,25.0,F,3.0
P0007,43.0,Neutral,Yellow,Blue,Space,0.0,281.74738388616333,1.0,43.0,None,20.0,M,3.0
P0008,44.0,Neutral,Green,Blue,Space,1.0,224.15540904619687,0.0,44.0,None,29.0,F,3.0
P0009,45.0,Congruent,Yellow,Blue,Space,1.0,202.07508508698942,1.0,45.0,None,18.0,M,3.0
P0010,46.0,Congruent,Red,Blue,Space,1.0,291.26555666168963,1.0,46.0,None,56.0,F,3.0
P0011,47.0,Congruent,Green,Blue,Space,1.0,242.50607742324277,1.0,47.0,None,18.0,F,3.0
P0012,48.0,Congruent,Green,Blue,Space,1.0,278.0746761413107,1.0,48.0,None,18.0,M,3.0
P0013,1.0,Congruent,Blue,Green,Space,1.0,198.09366691942537,1.0,1.0,None,42.0,M,1.0
P0014,2.0,Incongruent,Yellow,Blue,Space,0.0,645.3731292880399,1.0,2.0,None,30.0,F,1.0
P0015,3.0,Neutral,Red,Red,Space,1.0,306.44701585685783,1.0,3.0,None,23.0,M,1.0
P0016,4.0,Congruent,Green,Red,Space,1.0,,0.0,4.0,None,18.0,F,1.0
P0017,5.0,Neutral,Green,Blue,Space,1.0,392.80053268124215,1.0,5.0,None,24.0,M,1.0
P0018,6.0,Neutral,Green,Blue,Space,0.0,429.48687213987307,1.0,6.0,None,,F,1.0
P0019,7.0,Neutral,Red,Yellow,Space,0.0,442.46313096562034,1.0,7.0,None,37.0,M,1.0
P0020,8.0,Neutral,Green,Red,Space,1.0,256.4466559348281,0.0,8.0,None,52.0,,1.0
P0001,9.0,Incongruent,Yellow,Yellow,Space,0.0,666.4421969073143,0.0,9.0,None,36.0,M,1.0
P0002,10.0,Neutral,,Yellow,Space,0.0,411.1581477827165,1.0,10.0,None,23.0,M,1.0
P0003,11.0,Neutral,Blue,Red,Space,1.0,371.9307695382304,0.0,11.0,None,31.0,M,1.0
P0004,12.0,Neutral,Blue,Green,Space,0.0,335.22059757579933,0.0,12.0,None,,M,1.0
P0005,13.0,Congruent,Blue,Red,Space,1.0,242.55257023275337,1.0,13.0,None,44.0,M,1.0
P0006,14.0,Congruent,Yellow,Green,Space,1.0,155.53479770429178,1.0,,None,25.0,F,1.0
P0007,15.0,Neutral,Blue,Yellow,Space,0.0,510.69606978186795,1.0,15.0,None,20.0,M,1.0
P0008,16.0,Incongruent,Blue,Green,Space,0.0,790.2439649287825,1.0,16.0,None,29.0,F,1.0
P0009,17.0,Neutral,Yellow,Red,Space,0.0,249.88624479199044,1.0,17.0,None,18.0,M,1.0
P0010,18.0,Congruent,Blue,Yellow,Space,1.0,184.95854621001072,1.0,18.0,None,56.0,F,1.0
P0011,19.0,Incongruent,,Red,Space,0.0,309.34545849142285,0.0,19.0,None,18.0,F,1.0
P0012,20.0,Congruent,Blue,Blue,Space,1.0,272.2182214088024,1.0,20.0,None,18.0,M,1.0
P0013,21.0,Incongruent,Blue,Green,Space,0.0,525.2006839013011,1.0,21.0,None,42.0,M,1.0
P0014,22.0,Incongruent,Green,Green,Space,0.0,1321.4783458970944,0.0,22.0,,30.0,F,1.0
P0015,23.0,Congruent,Blue,Yellow,,1.0,189.87975360949847,1.0,23.0,None,23.0,M,1.0
P0016,24.0,Incongruent,Green,Red,Space,0.0,919.0552656664959,0.0,24.0,None,18.0,F,1.0
P0017,25.0,Neutral,Blue,Yellow,Space,0.0,372.6775187073316,1.0,25.0,None,24.0,M,1.0
P0018,26.0,Congruent,Red,Green,Space,1.0,268.4777501271969,1.0,26.0,None,22.0,F,1.0
P0019,27.0,Neutral,Red,Green,Space,0.0,375.7757312368679,1.0,27.0,None,37.0,M,1.0
P0020,28.0,Congruent,Blue,Yellow,Space,1.0,227.08000008645843,1.0,28.0,None,52.0,F,1.0
P0001,29.0,Congruent,Green,Yellow,Space,1.0,246.99760691020995,1.0,29.0,None,36.0,M,1.0
P0002,30.0,Congruent,Red,Red,Space,1.0,213.42584612509552,1.0,30.0,None,23.0,M,1.0
P0003,31.0,Congruent,Blue,Yellow,Space,1.0,185.85327270441553,1.0,31.0,,31.0,M,1.0
P0004,32.0,Neutral,Blue,Blue,Space,1.0,250.0342807810085,1.0,32.0,None,38.0,M,1.0
P0005,33.0,Congruent,Blue,Green,Space,1.0,184.3377476970826,1.0,33.0,None,44.0,M,
P0006,34.0,Incongruent,Blue,Red,Space,0.0,563.9948634606804,0.0,34.0,None,25.0,F,1.0
P0007,35.0,Incongruent,Blue,Blue,Space,0.0,922.4669403488278,1.0,35.0,None,20.0,M,1.0
P0008,36.0,Incongruent,Red,Yellow,Space,0.0,614.0832593671328,1.0,36.0,None,29.0,F,1.0
P0009,37.0,Congruent,Green,Yellow,Space,1.0,234.1893117782812,1.0,37.0,None,18.0,M,1.0
P0010,38.0,Congruent,Yellow,Red,Space,1.0,,1.0,38.0,None,56.0,F,1.0
P0011,39.0,Neutral,Green,Green,Space,0.0,510.86688598287293,1.0,39.0,None,18.0,F,1.0
P0012,40.0,Neutral,Yellow,Red,Space,0.0,259.44446036184513,1.0,40.0,None,18.0,M,1.0
P0013,41.0,Incongruent,Yellow,Blue,Space,0.0,656.2989725375819,0.0,41.0,None,42.0,M,1.0
P0014,42.0,Congruent,Green,Green,Space,1.0,303.2232468463218,1.0,42.0,None,30.0,F,1.0
P0015,43.0,Neutral,Blue,Yellow,Space,0.0,600.8297183900271,0.0,43.0,None,23.0,M,1.0
P0016,44.0,Incongruent,Yellow,Blue,Space,0.0,331.10386101863566,1.0,44.0,None,18.0,F,1.0
P0017,45.0,Congruent,Red,Yellow,Space,1.0,379.21879866398854,1.0,45.0,None,24.0,M,1.0
P0018,46.0,Incongruent,Red,Blue,Space,0.0,758.7476474542735,1.0,46.0,None,22.0,F,1.0
P0019,47.0,Incongruent,Yellow,Green,Space,0.0,540.3089375798475,1.0,47.0,None,37.0,M,1.0
P0020,48.0,,Red,Green,Space,1.0,271.8382088121254,1.0,48.0,None,52.0,F,1.0
P0001,1.0,Neutral,Red,Yellow,Space,0.0,321.3954482178079,1.0,1.0,None,36.0,M,2.0
P0002,2.0,Congruent,Yellow,Green,Space,1.0,187.73284273646152,1.0,2.0,None,23.0,M,2.0
P0003,3.0,Incongruent,Yellow,Red,Space,0.0,554.2865520940258,1.0,3.0,None,31.0,M,2.0
P0004,4.0,,Red,Green,Space,1.0,241.31860011498256,1.0,4.0,,38.0,M,2.0
P0005,5.0,Incongruent,Blue,Green,Space,0.0,924.8707226669493,1.0,5.0,None,44.0,M,2.0
P0006,6.0,Congruent,Blue,Red,Space,1.0,224.42675474729077,1.0,6.0,None,25.0,F,2.0
P0007,7.0,Neutral,Yellow,Green,Space,1.0,411.4396951248643,1.0,7.0,,20.0,M,2.0
P0008,8.0,Neutral,Green,Green,Space,0.0,184.18981152824063,1.0,8.0,None,29.0,F,2.0
P0009,9.0,Congruent,Red,Blue,Space,1.0,224.00387995448312,1.0,9.0,None,18.0,M,2.0
P0010,10.0,Congruent,Green,Green,Space,1.0,302.19628623274343,1.0,10.0,None,56.0,F,2.0
,11.0,Incongruent,Red,Green,Space,0.0,762.7373271146972,1.0,11.0,None,18.0,F,2.0
P0012,12.0,Neutral,Green,Green,Space,0.0,356.20686212956167,,12.0,None,18.0,M,2.0
P0013,13.0,Congruent,Blue,Red,Space,1.0,206.88377168439172,0.0,13.0,None,42.0,M,2.0
P0014,14.0,Neutral,Yellow,Red,Space,1.0,257.74311980740623,,14.0,None,30.0,F,2.0
P0015,15.0,Incongruent,Yellow,Yellow,Space,,614.7684944784625,0.0,15.0,None,23.0,M,2.0
P0016,16.0,Neutral,Yellow,Red,Space,1.0,310.2242514656082,1.0,16.0,None,18.0,F,2.0
P0017,17.0,Incongruent,Red,Yellow,Space,0.0,1603.808728203215,1.0,17.0,None,24.0,M,2.0
P0018,18.0,Congruent,Green,Blue,Space,1.0,166.18521696340608,1.0,18.0,None,22.0,F,2.0
P0019,19.0,Incongruent,Yellow,Blue,Space,0.0,1015.1460581418218,1.0,19.0,None,37.0,M,2.0
P0020,20.0,Incongruent,Blue,Yellow,Space,0.0,,0.0,20.0,None,52.0,F,2.0
P0001,21.0,Incongruent,Green,Blue,Space,0.0,689.4514497082218,1.0,21.0,None,36.0,M,2.0
P0002,22.0,Congruent,Yellow,Blue,Space,1.0,199.12148858674428,1.0,22.0,None,23.0,M,2.0
P0003,23.0,Incongruent,Green,Blue,Space,0.0,839.791400144496,0.0,23.0,None,31.0,M,2.0
P0004,24.0,Congruent,Red,Green,Space,1.0,234.96587310197594,1.0,24.0,None,38.0,M,2.0
P0005,25.0,Incongruent,Red,Green,Space,0.0,876.9115919658625,1.0,25.0,None,44.0,M,2.0
P0006,26.0,Neutral,Blue,Red,Space,0.0,297.9047901193232,1.0,26.0,None,25.0,F,2.0
P0007,27.0,Neutral,Yellow,Red,Space,1.0,222.57879770692907,1.0,27.0,None,20.0,M,2.0
P0008,28.0,Congruent,Red,Yellow,Space,1.0,308.9016407334736,1.0,28.0,None,29.0,F,2.0
P0009,29.0,Incongruent,Yellow,Yellow,Space,0.0,562.6264902829764,0.0,29.0,None,18.0,M,2.0
P0010,30.0,Congruent,Yellow,Red,Space,1.0,172.05898969875398,1.0,30.0,None,56.0,F,2.0
P0011,31.0,Congruent,Blue,Green,Space,1.0,315.72456161415124,1.0,31.0,None,18.0,F,2.0
P0012,32.0,Congruent,Red,Red,Space,1.0,291.1237940656282,1.0,32.0,None,18.0,M,2.0
P0013,33.0,Congruent,Red,Yellow,Space,1.0,345.17122844770455,1.0,33.0,,42.0,M,2.0
P0014,34.0,Neutral,Green,Red,Space,1.0,344.5953756770487,1.0,34.0,None,30.0,F,2.0
P0015,35.0,,Yellow,Blue,Space,0.0,700.4811240282065,1.0,35.0,None,23.0,M,2.0
P0016,36.0,Incongruent,Green,Blue,Space,0.0,1284.9088077367446,1.0,36.0,None,18.0,F,2.0
P0017,37.0,Incongruent,Green,Yellow,Space,0.0,615.1064965992779,1.0,37.0,None,24.0,M,2.0
P0018,38.0,Incongruent,Red,Yellow,Space,0.0,664.2484726606033,0.0,38.0,None,22.0,F,
P0019,39.0,Congruent,Yellow,Green,Space,1.0,261.2533103508228,1.0,39.0,None,37.0,M,2.0
P0020,40.0,Neutral,Yellow,Green,Space,0.0,270.30818840345387,1.0,40.0,None,52.0,F,2.0
P0001,41.0,Neutral,Red,Yellow,Space,0.0,349.3496420606951,1.0,41.0,None,36.0,M,2.0
P0002,42.0,Congruent,Red,Red,Space,1.0,190.14986605043225,1.0,42.0,None,23.0,M,2.0
P0003,43.0,Congruent,Yellow,Yellow,Space,1.0,315.02590066308346,1.0,,None,31.0,M,2.0
P0004,44.0,Congruent,Red,Red,Space,1.0,205.35333153680827,1.0,44.0,None,38.0,M,2.0
P0005,45.0,Incongruent,Green,Yellow,Space,0.0,392.11340434355077,1.0,45.0,None,44.0,M,2.0
P0006,46.0,Congruent,Yellow,Yellow,Space,1.0,,1.0,46.0,None,25.0,F,2.0
P0007,47.0,Congruent,Red,Green,Space,1.0,235.06223920247058,1.0,,None,20.0,M,2.0
P0008,48.0,Congruent,Red,Green,Space,1.0,307.01184230275805,1.0,48.0,None,29.0,F,2.0
P0009,1.0,Neutral,Red,Green,Space,0.0,416.7644535048552,0.0,1.0,None,18.0,M,3.0
P0010,2.0,Neutral,Green,Blue,Space,0.0,348.3417045529623,1.0,2.0,None,56.0,F,3.0
P0011,3.0,Congruent,Red,Red,Space,1.0,200.30793785556924,1.0,3.0,None,18.0,F,3.0
P0012,4.0,Incongruent,Blue,Blue,Space,0.0,621.1281620597682,1.0,4.0,None,18.0,M,3.0
P0013,5.0,Congruent,Red,Yellow,Space,1.0,229.7078841158645,1.0,5.0,None,42.0,M,3.0
P0014,6.0,Congruent,Blue,Green,Space,1.0,175.27528728617398,1.0,6.0,None,30.0,F,3.0
P0015,7.0,Incongruent,Green,Green,Space,0.0,456.47822671912024,1.0,7.0,None,23.0,M,3.0
P0016,8.0,Congruent,Yellow,Red,Space,1.0,288.4527652387799,1.0,8.0,None,18.0,F,3.0
P0017,9.0,Congruent,Red,Blue,Space,1.0,231.5256644805488,1.0,9.0,None,,M,3.0
P0018,10.0,Incongruent,Blue,Red,Space,0.0,517.7669684795164,1.0,10.0,None,22.0,F,3.0
P0019,11.0,Incongruent,Green,Blue,Space,0.0,899.9848494600737,1.0,11.0,None,37.0,M,3.0
P0020,12.0,Congruent,Green,Red,Space,1.0,308.03328842330717,1.0,12.0,,52.0,F,3.0
P0001,13.0,Incongruent,Green,Red,Space,0.0,1151.7693686275643,0.0,13.0,None,36.0,M,3.0
P0002,14.0,Congruent,Green,Yellow,Space,1.0,183.9562012097595,1.0,14.0,None,23.0,M,3.0
P0003,15.0,Congruent,Blue,Green,Space,1.0,208.52838084900398,1.0,15.0,None,31.0,M,3.0
P0004,16.0,Neutral,Green,Blue,Space,1.0,558.1771821047577,0.0,16.0,None,38.0,M,3.0
,17.0,Neutral,Red,Yellow,Space,1.0,316.81078765002553,1.0,17.0,None,44.0,M,3.0
P0006,18.0,Neutral,Yellow,Red,Space,0.0,321.42428163220524,1.0,,None,25.0,F,3.0
P0007,19.0,Neutral,Blue,Green,Space,1.0,247.14336459356852,1.0,19.0,None,20.0,M,3.0
P0008,20.0,Incongruent,Green,Green,Space,0.0,951.0044327767828,0.0,20.0,None,29.0,F,3.0
P0009,21.0,Congruent,Red,Blue,Space,1.0,352.0201322491312,0.0,21.0,None,18.0,M,3.0
P0010,22.0,Incongruent,Blue,Green,Space,0.0,275.0405111609853,1.0,22.0,None,56.0,F,3.0
P0011,23.0,Neutral,Yellow,Blue,Space,1.0,302.44817093391913,0.0,23.0,None,18.0,F,3.0
P0012,24.0,Neutral,Yellow,Green,Space,,397.0514891677074,1.0,24.0,,18.0,M,3.0
P0013,25.0,Incongruent,Green,Green,Space,,660.2025989213437,1.0,25.0,None,42.0,M,3.0
P0014,26.0,Congruent,Yellow,Red,Space,1.0,349.91663181443306,1.0,26.0,None,30.0,F,3.0
P0015,27.0,Incongruent,Green,Red,Space,0.0,552.0786380941138,0.0,27.0,None,23.0,M,3.0
P0016,28.0,Congruent,Green,Yellow,Space,1.0,277.892319813031,1.0,28.0,,18.0,F,3.0
P0017,29.0,Neutral,Yellow,Yellow,Space,0.0,302.6484079170427,1.0,29.0,None,24.0,M,3.0
P0018,30.0,Neutral,Green,Blue,Space,0.0,,1.0,30.0,None,22.0,F,3.0
P0019,31.0,Neutral,Red,Green,Space,0.0,348.8591602592587,1.0,31.0,None,37.0,M,3.0
P0020,32.0,Congruent,Yellow,Yellow,Space,1.0,308.0494781184586,1.0,32.0,None,52.0,F,3.0
P0001,33.0,Neutral,Yellow,Blue,Space,1.0,308.9551240139624,1.0,33.0,None,36.0,M,3.0
P0002,34.0,Neutral,Red,Red,Space,0.0,313.55050083460026,0.0,34.0,None,23.0,,3.0
P0003,35.0,Incongruent,Blue,Red,Space,0.0,640.9434566029225,0.0,,None,31.0,M,3.0
P0004,36.0,Congruent,Yellow,Blue,Space,1.0,,1.0,36.0,None,38.0,M,3.0
P0005,37.0,Incongruent,Yellow,Green,Space,0.0,830.0296372287536,1.0,37.0,None,44.0,M,3.0
P0006,38.0,Incongruent,Green,Yellow,Space,0.0,737.3325275924547,0.0,38.0,None,25.0,F,3.0
P0007,39.0,Incongruent,Yellow,Green,Space,0.0,,1.0,39.0,None,20.0,M,3.0
P0008,40.0,Incongruent,Green,Yellow,Space,0.0,1492.3351950777476,1.0,40.0,None,29.0,F,3.0
P0009,41.0,Incongruent,Blue,Green,Space,0.0,498.424668241194,1.0,41.0,None,18.0,M,3.0
P0010,42.0,Incongruent,Red,Blue,Space,0.0,440.5300665675804,1.0,42.0,None,56.0,F,3.0
P0011,43.0,Neutral,Green,Green,Space,1.0,168.0147010948122,1.0,43.0,None,18.0,F,3.0
P0012,44.0,Neutral,Blue,Yellow,Space,0.0,322.52205188196336,1.0,44.0,None,18.0,M,3.0
P0013,45.0,Congruent,Blue,,Space,1.0,198.26031004991592,1.0,45.0,None,42.0,M,3.0
P0014,46.0,Congruent,Green,Green,Space,1.0,260.47071529300035,1.0,46.0,None,30.0,F,3.0
P0015,47.0,Congruent,Green,Blue,Space,1.0,301.16540723540686,1.0,47.0,None,23.0,M,3.0
P0016,48.0,Neutral,Red,Blue,Space,0.0,222.52422581924,0.0,48.0,None,18.0,F,3.0
P0017,1.0,Neutral,Blue,Green,Space,0.0,187.13078597700286,1.0,1.0,None,24.0,M,1.0
P0018,2.0,Neutral,Blue,Green,Space,1.0,374.5285241211571,0.0,2.0,None,22.0,F,
P0019,3.0,Neutral,Green,Blue,Space,1.0,359.62249565497603,1.0,3.0,None,37.0,M,1.0
P0020,4.0,Neutral,Yellow,Red,Space,0.0,558.6267951689626,1.0,4.0,None,52.0,F,1.0
P0001,5.0,Incongruent,Blue,Red,Space,0.0,1253.6554126765,1.0,5.0,None,36.0,M,1.0
P0002,6.0,Incongruent,Red,Yellow,Space,0.0,692.4654184186178,1.0,6.0,,23.0,M,1.0
P0003,7.0,Incongruent,Red,Blue,Space,0.0,411.16083088827725,1.0,7.0,None,31.0,M,1.0
P0004,8.0,Neutral,Yellow,Blue,,1.0,339.72753205852257,1.0,8.0,None,38.0,M,1.0
P0005,9.0,Congruent,Blue,Blue,Space,1.0,397.7549489685126,1.0,9.0,None,44.0,,1.0
P0006,10.0,Incongruent,Yellow,Yellow,Space,0.0,579.1025768940227,0.0,10.0,None,25.0,F,
P0007,11.0,Congruent,Yellow,Yellow,,1.0,154.7337652231339,1.0,11.0,None,20.0,M,1.0
P0008,12.0,Congruent,Red,,Space,1.0,215.2914648829529,1.0,,None,29.0,F,1.0
P0009,13.0,Incongruent,Blue,Blue,Space,0.0,669.2139516768087,1.0,13.0,None,18.0,M,1.0
P0010,14.0,Neutral,Yellow,Blue,Space,0.0,473.9889139121578,1.0,14.0,None,56.0,F,1.0
P0011,15.0,Incongruent,Blue,Blue,Space,0.0,713.1540610816544,1.0,15.0,None,18.0,F,1.0
P0012,16.0,Incongruent,Red,Yellow,Space,0.0,417.2215129532457,1.0,16.0,None,18.0,M,1.0
P0013,17.0,Neutral,Blue,Yellow,Space,1.0,427.84702093386954,1.0,17.0,None,42.0,M,1.0
P0014,18.0,Neutral,Yellow,Red,Space,0.0,390.2964005575904,1.0,18.0,None,30.0,F,1.0
P0015,19.0,Neutral,Yellow,Green,Space,0.0,274.95473598362344,1.0,19.0,None,23.0,M,1.0
P0016,20.0,Neutral,Blue,Yellow,Space,0.0,496.0626272592045,1.0,20.0,None,18.0,F,1.0
P0017,21.0,Neutral,Blue,Green,Space,1.0,302.733121284808,1.0,21.0,None,24.0,M,1.0
P0018,22.0,Congruent,Yellow,Yellow,Space,1.0,320.7557723798712,1.0,22.0,None,22.0,F,1.0
P0019,23.0,Incongruent,Red,,Space,0.0,458.7534141240806,0.0,23.0,None,37.0,M,1.0
P0020,24.0,Congruent,Blue,Blue,Space,1.0,329.6803357612636,1.0,24.0,None,52.0,F,1.0
P0001,25.0,Incongruent,Yellow,Yellow,Space,0.0,198.70346338885275,1.0,25.0,None,36.0,M,1.0
P0002,26.0,Congruent,Green,Green,Space,1.0,330.7036409774948,1.0,26.0,None,23.0,M,1.0
P0003,27.0,Congruent,Blue,Green,Space,1.0,234.97050070444965,1.0,27.0,None,31.0,,1.0
P0004,28.0,Congruent,Green,Green,Space,1.0,200.220309025026,1.0,28.0,None,38.0,M,1.0
P0005,29.0,Incongruent,Blue,Red,Space,0.0,701.5699282907251,1.0,29.0,None,44.0,M,1.0
P0006,30.0,Neutral,Blue,Blue,Space,1.0,357.84955388185296,1.0,30.0,None,25.0,F,1.0
P0007,31.0,Neutral,Red,Green,Space,0.0,288.67820747167366,1.0,31.0,None,20.0,M,1.0
P0008,32.0,Neutral,,Red,Space,0.0,339.4623295987751,1.0,32.0,None,29.0,F,1.0
P0009,33.0,,Yellow,Yellow,Space,0.0,506.5375319783934,1.0,33.0,None,18.0,M,1.0
P0010,34.0,Neutral,Blue,,Space,1.0,243.36203479143606,1.0,34.0,None,56.0,F,1.0
P0011,35.0,Congruent,Red,Green,Space,1.0,248.21191453834484,0.0,35.0,None,18.0,F,
P0012,36.0,Congruent,Green,Red,Space,1.0,126.2024539566387,1.0,36.0,None,18.0,M,1.0
P0013,37.0,Neutral,Red,Yellow,Space,0.0,306.6196012630719,1.0,37.0,None,42.0,M,1.0
P0014,38.0,Neutral,Blue,Yellow,Space,1.0,413.85617618550197,1.0,38.0,None,30.0,F,1.0
P0015,39.0,Neutral,Blue,Blue,Space,1.0,292.87273844324204,1.0,39.0,None,23.0,M,1.0
P0016,40.0,Congruent,Red,Yellow,Space,1.0,183.95610729779858,1.0,40.0,None,18.0,F,1.0
P0017,41.0,Congruent,Red,Yellow,Space,1.0,328.4948642971453,1.0,41.0,None,24.0,M,1.0
P0018,42.0,,Blue,Red,Space,1.0,495.6990897273544,1.0,42.0,None,22.0,F,1.0
P0019,43.0,Congruent,Red,,Space,1.0,284.4841557300603,1.0,43.0,None,37.0,M,1.0
P0020,44.0,Incongruent,Yellow,Blue,Space,0.0,931.0420330827225,0.0,44.0,None,52.0,F,1.0
P0001,45.0,Incongruent,Green,Blue,Space,0.0,758.5942175547856,1.0,45.0,None,36.0,M,1.0
P0002,,Incongruent,Blue,Green,Space,0.0,523.1378633864209,1.0,46.0,None,23.0,M,1.0
P0003,47.0,Neutral,Yellow,Yellow,Space,0.0,295.64889679006467,1.0,47.0,None,31.0,M,1.0
P0004,48.0,Congruent,Yellow,Blue,Space,1.0,199.19664112089146,1.0,48.0,None,,M,1.0
P0005,1.0,Neutral,Blue,Yellow,Space,1.0,402.115792667121,1.0,1.0,None,44.0,M,2.0
P0006,2.0,Congruent,Blue,Red,Space,1.0,271.5365444819885,1.0,2.0,None,25.0,F,2.0
P0007,3.0,Neutral,Red,Yellow,Space,1.0,200.61742377712807,1.0,3.0,None,20.0,M,2.0
P0008,4.0,Neutral,Green,Red,Space,0.0,385.7965296490253,1.0,4.0,None,29.0,F,2.0
P0009,5.0,Incongruent,Green,Blue,Space,0.0,513.8227752836033,1.0,5.0,None,18.0,M,2.0
P0010,6.0,Neutral,Green,Yellow,Space,1.0,204.90665094442204,1.0,6.0,None,56.0,F,2.0
P0011,7.0,Incongruent,Yellow,Green,Space,0.0,496.08135873964665,1.0,7.0,None,18.0,F,2.0
P0012,8.0,Congruent,Red,Blue,Space,1.0,192.15027136406363,1.0,8.0,,18.0,M,2.0
P0013,9.0,Congruent,Yellow,Green,Space,1.0,349.66289373890845,1.0,9.0,None,42.0,M,2.0
P0014,10.0,Neutral,Red,Green,Space,0.0,377.43883562242473,0.0,10.0,None,30.0,F,2.0
P0015,11.0,Neutral,Red,Blue,,1.0,307.85434965333144,1.0,11.0,None,23.0,M,2.0
P0016,12.0,Neutral,,Yellow,Space,1.0,388.0461721741134,1.0,12.0,None,18.0,F,2.0
P0017,13.0,Congruent,Blue,Green,Space,1.0,183.74295211487166,1.0,13.0,None,24.0,M,2.0
P0018,14.0,Incongruent,Red,Blue,Space,0.0,774.9620460252563,1.0,14.0,None,22.0,F,2.0
P0019,15.0,Congruent,Red,Blue,Space,1.0,201.37845165142778,1.0,15.0,None,37.0,M,2.0
P0020,16.0,,Blue,Yellow,Space,0.0,467.13890984817095,1.0,16.0,None,52.0,F,2.0
P0001,17.0,Incongruent,Green,Red,Space,0.0,1197.9504632472397,1.0,17.0,None,36.0,M,2.0
P0002,18.0,Incongruent,Green,Green,Space,0.0,,1.0,18.0,None,23.0,M,2.0
P0003,19.0,Neutral,Yellow,Yellow,Space,,319.5449520155196,1.0,,None,,M,2.0
P0004,20.0,Congruent,Blue,Yellow,Space,1.0,334.40319424851305,1.0,20.0,None,38.0,M,2.0
P0005,21.0,Incongruent,Red,Yellow,Space,,615.8139854979648,1.0,21.0,None,44.0,M,2.0
P0006,22.0,Congruent,Blue,Red,Space,,295.3965586668539,1.0,22.0,None,25.0,F,2.0
P0007,23.0,Congruent,Blue,Yellow,Space,1.0,347.3629494047266,1.0,23.0,None,20.0,M,2.0
P0008,24.0,Neutral,,Green,Space,0.0,345.97569125654167,1.0,24.0,None,29.0,F,2.0
P0009,25.0,Congruent,Blue,Blue,Space,1.0,255.29413692245507,0.0,25.0,None,18.0,M,2.0
P0010,26.0,Congruent,Yellow,Blue,Space,1.0,188.61146923432864,1.0,26.0,None,56.0,F,2.0
P0011,27.0,Neutral,Red,Yellow,Space,0.0,335.3864427880363,0.0,27.0,None,18.0,F,2.0
P0012,28.0,Neutral,Blue,Blue,Space,0.0,323.36412076383436,1.0,28.0,None,18.0,M,2.0
P0013,29.0,,Blue,Yellow,Space,1.0,384.9157697068704,1.0,29.0,None,42.0,M,2.0
P0014,30.0,Incongruent,Red,Green,Space,0.0,1137.8277557908955,1.0,30.0,None,30.0,F,2.0
P0015,31.0,Congruent,Green,Yellow,Space,1.0,280.5480898034086,1.0,31.0,None,23.0,M,2.0
P0016,32.0,Neutral,Blue,Yellow,Space,1.0,220.09376704511166,1.0,32.0,None,18.0,F,2.0
P0017,33.0,Congruent,Yellow,Blue,Space,1.0,303.1957476083211,1.0,33.0,None,24.0,M,2.0
P0018,34.0,Congruent,Yellow,Blue,Space,1.0,184.9512375493503,1.0,34.0,None,22.0,F,2.0
P0019,35.0,Neutral,Red,Green,Space,0.0,231.8191026145277,1.0,35.0,None,37.0,M,2.0
P0020,,Congruent,Green,Green,Space,,294.27998274360914,1.0,36.0,None,52.0,F,2.0
P0001,37.0,Incongruent,Red,Red,Space,0.0,305.6853717523034,0.0,37.0,None,36.0,M,2.0
P0002,38.0,Incongruent,Red,Blue,Space,0.0,786.9304522640331,1.0,38.0,None,23.0,M,2.0
P0003,39.0,Congruent,Yellow,Green,Space,1.0,123.90665010634496,1.0,39.0,None,31.0,M,2.0
P0004,40.0,Neutral,Yellow,Blue,Space,1.0,316.8535444870363,1.0,40.0,None,38.0,M,2.0
,41.0,Neutral,Green,Red,Space,0.0,529.8853884144669,1.0,41.0,None,44.0,M,2.0
P0006,42.0,Incongruent,Green,Green,Space,0.0,1428.435092056943,0.0,42.0,None,25.0,F,2.0
P0007,43.0,Congruent,Green,Blue,Space,1.0,213.9586502192131,1.0,43.0,None,20.0,M,2.0
P0008,44.0,Incongruent,Red,Yellow,Space,0.0,726.6513711990791,1.0,44.0,None,29.0,F,2.0
P0009,45.0,Incongruent,Red,Blue,Space,0.0,656.9337612686826,1.0,45.0,None,18.0,M,2.0
P0010,46.0,Congruent,Blue,Blue,Space,1.0,226.88141277685696,1.0,46.0,None,56.0,F,2.0
,47.0,Incongruent,Red,Blue,Space,0.0,621.4534696426879,0.0,47.0,None,18.0,F,2.0
P0012,48.0,Incongruent,Red,Blue,Space,0.0,914.9368010805563,1.0,48.0,,18.0,M,2.0
P0013,1.0,Incongruent,Blue,Red,Space,0.0,1350.938338797566,0.0,1.0,None,42.0,M,3.0
P0014,2.0,Neutral,Yellow,Blue,Space,1.0,458.1541777275248,1.0,2.0,None,30.0,F,3.0
P0015,3.0,Incongruent,Red,Yellow,Space,0.0,513.0590787247046,0.0,3.0,None,23.0,M,3.0
P0016,4.0,Congruent,Red,Blue,Space,1.0,255.11038209731626,1.0,4.0,None,18.0,F,3.0
P0017,5.0,Congruent,Green,Red,Space,1.0,296.30351321298394,1.0,5.0,None,24.0,M,3.0
P0018,6.0,Neutral,Green,Red,Space,1.0,286.4227003722003,0.0,6.0,None,22.0,F,
P0019,7.0,Incongruent,Green,Green,Space,0.0,805.1144963118312,0.0,7.0,None,37.0,M,3.0
P0020,8.0,Incongruent,Green,Blue,Space,0.0,690.3587045948224,0.0,8.0,None,52.0,F,3.0
P0001,9.0,Neutral,Yellow,Blue,Space,0.0,337.3877310229337,1.0,9.0,None,36.0,M,3.0
P0002,10.0,Congruent,Green,Red,Space,1.0,109.51731133288024,1.0,10.0,None,23.0,M,3.0
P0003,11.0,Neutral,Yellow,Green,Space,0.0,289.6954087265669,1.0,11.0,None,31.0,M,3.0
P0004,12.0,Congruent,Red,Red,Space,1.0,163.76947600526714,1.0,12.0,None,38.0,M,3.0
P0005,13.0,Congruent,Green,Yellow,Space,1.0,299.1951770070972,1.0,13.0,None,44.0,M,3.0
P0006,14.0,Neutral,Green,Blue,Space,1.0,251.46243239908097,1.0,14.0,None,25.0,F,3.0
P0007,15.0,Congruent,Green,Green,Space,1.0,288.2967879354289,1.0,15.0,None,20.0,M,3.0
P0008,16.0,Incongruent,Red,Red,Space,,633.4123704141738,1.0,16.0,None,29.0,F,3.0
P0009,17.0,Neutral,Red,Red,Space,1.0,562.5225676385841,1.0,17.0,None,18.0,M,3.0
P0010,18.0,Incongruent,Blue,Green,Space,0.0,760.3412883474275,1.0,18.0,None,56.0,F,3.0
P0011,19.0,Congruent,Yellow,Blue,Space,1.0,131.4931013589153,1.0,19.0,None,18.0,F,3.0
P0012,20.0,Congruent,Yellow,Green,Space,,193.70610188175414,1.0,20.0,None,18.0,M,3.0
P0013,21.0,Congruent,Green,Red,Space,1.0,248.92070828753234,1.0,21.0,None,42.0,M,3.0
P0014,22.0,Congruent,Yellow,Blue,Space,1.0,281.169324215515,1.0,22.0,None,30.0,F,3.0
P0015,23.0,Neutral,Blue,Blue,Space,1.0,469.9240710792034,1.0,,None,23.0,M,3.0
P0016,24.0,Neutral,Blue,Blue,Space,0.0,249.5810788248321,1.0,24.0,None,18.0,F,3.0
P0017,,,Red,Red,Space,0.0,1313.5173462117525,0.0,25.0,None,24.0,M,3.0
P0018,26.0,Neutral,Blue,Red,Space,1.0,365.1716355540722,1.0,26.0,None,,F,3.0
P0019,27.0,Incongruent,Green,Yellow,Space,0.0,802.6658317902626,1.0,27.0,None,37.0,M,3.0
P0020,28.0,Neutral,Yellow,Yellow,Space,0.0,337.94296422057494,1.0,28.0,None,52.0,F,3.0
P0001,29.0,Congruent,Blue,Yellow,Space,1.0,182.3440213109314,1.0,29.0,None,36.0,M,3.0
P0002,30.0,Congruent,Green,Green,Space,1.0,309.49403202270906,1.0,30.0,None,23.0,M,3.0
P0003,31.0,Neutral,Blue,Red,Space,1.0,240.40667363130325,1.0,31.0,None,31.0,M,3.0
P0004,32.0,Congruent,Blue,Red,Space,1.0,198.06370198143523,1.0,32.0,,38.0,M,3.0
P0005,33.0,Neutral,Blue,Yellow,Space,0.0,250.8994756434307,1.0,33.0,None,44.0,M,3.0
P0006,,Neutral,Blue,Blue,Space,0.0,267.4412888424017,1.0,,None,25.0,F,3.0
P0007,35.0,Neutral,Blue,Green,Space,0.0,459.16992428847203,1.0,35.0,None,20.0,M,3.0
P0008,36.0,Incongruent,Yellow,Green,Space,,1229.2973216466944,1.0,36.0,None,29.0,F,3.0
P0009,37.0,Incongruent,Yellow,Green,Space,0.0,430.00978130858806,1.0,37.0,None,18.0,M,3.0
P0010,38.0,Neutral,Yellow,Red,Space,1.0,374.15359477619546,1.0,38.0,,56.0,F,3.0
P0011,39.0,Congruent,Blue,Blue,Space,1.0,280.64192422884827,1.0,39.0,None,18.0,F,3.0
P0012,40.0,Neutral,Yellow,Yellow,Space,1.0,378.48996383463515,1.0,40.0,None,18.0,M,3.0
P0013,41.0,Neutral,Green,Yellow,Space,1.0,275.90454152021783,1.0,41.0,None,42.0,M,3.0
P0014,42.0,Incongruent,Yellow,Blue,Space,0.0,574.3926712769614,0.0,42.0,None,30.0,F,3.0
P0015,43.0,Congruent,Red,Yellow,Space,1.0,261.13929856190924,1.0,43.0,None,23.0,M,3.0
P0016,44.0,Incongruent,Yellow,Blue,Space,0.0,626.0868319595651,1.0,44.0,None,18.0,F,3.0
P0017,45.0,Neutral,Green,Green,Space,1.0,471.96717790864284,1.0,45.0,None,24.0,M,3.0
P0018,46.0,Congruent,Green,Red,Space,1.0,169.22367421948954,1.0,46.0,None,22.0,F,3.0
P0019,47.0,Incongruent,Red,Yellow,Space,0.0,659.5075601657168,1.0,47.0,None,37.0,M,3.0
P0020,48.0,Congruent,Red,Red,Space,1.0,315.0475446172002,1.0,48.0,None,52.0,F,3.0
P0001,1.0,Incongruent,Red,Yellow,Space,0.0,567.6495189205727,0.0,1.0,None,36.0,M,1.0
P0002,2.0,Incongruent,Blue,Blue,Space,0.0,693.3787104784877,1.0,2.0,None,23.0,M,1.0
P0003,3.0,Neutral,Red,Blue,Space,1.0,443.70624255899963,1.0,3.0,None,31.0,M,1.0
P0004,4.0,Congruent,Green,Red,Space,1.0,200.3639444639398,1.0,4.0,None,38.0,M,1.0
P0005,5.0,Neutral,Yellow,Red,Space,0.0,248.2241346999549,1.0,5.0,None,44.0,M,1.0
P0006,6.0,Congruent,Green,Yellow,Space,1.0,293.0621963094588,0.0,6.0,None,25.0,F,1.0
P0007,7.0,Incongruent,Blue,,Space,0.0,,1.0,7.0,None,20.0,M,1.0
P0008,8.0,Neutral,Green,Yellow,Space,0.0,451.8355303553413,1.0,8.0,None,29.0,F,1.0
P0009,9.0,Congruent,Blue,Green,Space,1.0,136.50218881069972,1.0,9.0,None,,M,1.0
P0010,10.0,Neutral,Yellow,Blue,Space,0.0,691.1550481689322,1.0,10.0,None,56.0,F,1.0
P0011,11.0,Neutral,Green,Red,Space,1.0,285.6139788292311,1.0,11.0,,18.0,F,1.0
P0012,12.0,Incongruent,Yellow,Yellow,Space,0.0,980.1635518049587,1.0,12.0,None,18.0,M,1.0
P0013,13.0,Incongruent,Yellow,Yellow,Space,0.0,1027.7028517890737,1.0,13.0,None,42.0,M,1.0
P0014,14.0,Neutral,Yellow,Red,Space,0.0,458.6151265343116,1.0,14.0,None,30.0,F,1.0
P0015,15.0,Incongruent,Yellow,Green,Space,0.0,780.4334007537775,1.0,15.0,None,23.0,M,1.0
P0016,16.0,Congruent,Blue,Green,Space,1.0,150.4548476857957,1.0,16.0,None,18.0,F,1.0
P0017,17.0,Incongruent,Yellow,Green,Space,0.0,537.2202241515665,0.0,17.0,None,24.0,M,1.0
P0018,18.0,Congruent,Yellow,Yellow,Space,1.0,197.6015989718688,1.0,18.0,None,22.0,F,1.0
P0019,19.0,Congruent,Blue,Blue,Space,1.0,185.76622081237576,1.0,19.0,None,37.0,M,1.0
P0020,20.0,Incongruent,Red,Blue,Space,0.0,879.5752011212218,1.0,20.0,None,52.0,F,1.0
P0001,21.0,Neutral,Blue,Red,Space,1.0,365.94823982812,1.0,21.0,None,36.0,M,1.0
P0002,22.0,Congruent,Yellow,Yellow,Space,1.0,179.62696912974576,1.0,22.0,None,23.0,M,1.0
P0003,23.0,Incongruent,Red,Blue,Space,0.0,633.438517172052,1.0,23.0,None,31.0,M,1.0
P0004,24.0,Congruent,Green,Green,Space,1.0,388.5316362490692,1.0,24.0,None,38.0,M,1.0
P0005,25.0,Incongruent,Green,Yellow,Space,0.0,844.6564057977289,0.0,25.0,None,44.0,M,1.0
P0006,26.0,Congruent,Blue,Green,Space,1.0,283.28952147468897,1.0,,None,25.0,F,1.0
P0007,27.0,Congruent,Green,Yellow,Space,1.0,300.4669938868704,,27.0,,20.0,M,1.0
P0008,28.0,Congruent,Green,Blue,Space,1.0,402.916551629938,1.0,28.0,None,29.0,F,1.0
P0009,29.0,Incongruent,Red,Green,Space,0.0,801.6819609012922,0.0,29.0,None,18.0,M,1.0
P0010,30.0,Congruent,Red,Green,Space,1.0,301.4222336837499,1.0,30.0,None,56.0,F,1.0
P0011,31.0,Neutral,Green,Blue,Space,0.0,187.43762154241261,1.0,31.0,None,18.0,F,
P0012,32.0,,Red,Red,Space,1.0,266.1821572296955,1.0,32.0,None,18.0,M,1.0
P0013,33.0,Incongruent,Yellow,Green,Space,0.0,250.54421191666725,1.0,33.0,None,42.0,M,1.0
P0014,34.0,Neutral,Green,Green,Space,1.0,308.29753895037965,1.0,34.0,None,30.0,F,1.0
P0015,35.0,Congruent,Yellow,Blue,Space,1.0,258.34050729384853,0.0,35.0,None,23.0,M,1.0
,36.0,Congruent,Yellow,Green,Space,1.0,251.5851641894662,1.0,36.0,None,18.0,F,
P0017,37.0,Neutral,Yellow,Green,Space,0.0,234.41275856706966,1.0,37.0,None,24.0,M,1.0
P0018,38.0,Incongruent,Red,Red,Space,0.0,463.837444491906,1.0,38.0,None,,F,1.0
P0019,39.0,Congruent,Green,Green,Space,1.0,256.0230586763809,1.0,39.0,None,37.0,M,
P0020,40.0,Incongruent,Green,Green,Space,0.0,595.666489700371,1.0,40.0,None,52.0,F,1.0
P0001,41.0,Incongruent,Red,Green,Space,0.0,797.6268026184994,0.0,41.0,None,36.0,M,1.0
P0002,42.0,Neutral,Green,Green,Space,0.0,465.49605147469384,,42.0,None,23.0,M,1.0
P0003,43.0,Neutral,Red,Green,Space,1.0,387.15411847418807,,43.0,None,31.0,M,1.0
P0004,44.0,Congruent,Blue,Yellow,Space,1.0,218.15345394523845,1.0,44.0,None,38.0,M,1.0
P0005,45.0,Incongruent,Blue,Green,Space,0.0,693.0228773250404,0.0,45.0,None,44.0,M,1.0
P0006,46.0,Incongruent,Yellow,Green,Space,0.0,,0.0,46.0,None,25.0,F,1.0
P0007,47.0,Neutral,,Blue,Space,0.0,411.34181063777964,0.0,47.0,None,20.0,M,1.0
P0008,48.0,Neutral,Blue,Yellow,Space,1.0,314.48670021120813,1.0,48.0,None,29.0,F,1.0
P0009,1.0,Congruent,Green,Green,Space,1.0,292.29929439216824,0.0,1.0,None,18.0,M,2.0
P0010,2.0,Incongruent,Blue,Blue,Space,0.0,978.5278092490532,1.0,2.0,None,56.0,F,2.0
P0011,3.0,Incongruent,Red,Red,Space,0.0,892.9670397045259,0.0,3.0,None,18.0,F,2.0
P0012,4.0,Congruent,Green,Red,Space,1.0,232.19075128966182,,,,18.0,M,2.0
P0013,5.0,Incongruent,Red,Green,Space,0.0,593.1192991584516,1.0,5.0,None,42.0,M,2.0
P0014,6.0,Neutral,Blue,Red,Space,1.0,361.609270558203,1.0,6.0,None,30.0,F,2.0
P0015,7.0,Neutral,Red,Green,Space,0.0,264.3826795059,1.0,7.0,None,23.0,M,2.0
P0016,8.0,Neutral,Yellow,Yellow,Space,0.0,235.41528420958994,1.0,8.0,None,18.0,F,2.0
P0017,,Neutral,Yellow,Red,,0.0,457.30071372506916,1.0,9.0,None,24.0,M,2.0
P0018,10.0,Incongruent,Yellow,Red,Space,0.0,997.3568631977049,0.0,10.0,None,22.0,F,2.0
P0019,11.0,Incongruent,Yellow,Red,Space,0.0,634.5824615884707,0.0,11.0,None,37.0,M,2.0
P0020,12.0,Congruent,Red,Blue,Space,1.0,255.38269858690649,1.0,12.0,None,52.0,F,2.0
P0001,13.0,Congruent,Yellow,Green,Space,1.0,242.43519002052912,1.0,13.0,None,36.0,M,2.0
P0002,14.0,Neutral,Red,Yellow,,0.0,534.256666183993,0.0,14.0,None,23.0,M,2.0
P0003,15.0,Neutral,Yellow,Blue,Space,1.0,470.6214105537554,1.0,15.0,None,31.0,M,2.0
P0004,16.0,Neutral,Red,Green,Space,0.0,342.54697406976084,1.0,16.0,None,38.0,M,2.0
P0005,17.0,Congruent,Blue,Blue,Space,1.0,280.12718131545427,1.0,17.0,None,44.0,M,2.0
P0006,18.0,Neutral,Blue,Green,Space,1.0,525.2259871500805,0.0,18.0,None,25.0,F,2.0
P0007,19.0,Neutral,Red,Yellow,Space,0.0,267.02583595758995,1.0,19.0,None,20.0,M,2.0
P0008,20.0,Congruent,Red,Blue,Space,1.0,418.67780079235604,1.0,20.0,None,29.0,F,2.0
P0009,21.0,Congruent,Blue,Green,Space,1.0,272.50464422158217,1.0,21.0,None,18.0,M,2.0
P0010,22.0,Incongruent,Green,Red,Space,0.0,477.30874020885386,1.0,22.0,None,56.0,F,2.0
P0011,23.0,Incongruent,Red,Yellow,Space,0.0,661.6230879203978,1.0,23.0,None,18.0,F,2.0
P0012,24.0,Neutral,Green,Yellow,Space,0.0,332.4794671185295,1.0,24.0,None,18.0,M,2.0
P0013,25.0,Incongruent,Blue,Yellow,Space,0.0,543.522038032617,1.0,25.0,None,42.0,M,2.0
P0014,26.0,Congruent,Red,Red,Space,1.0,299.9992474700582,1.0,26.0,None,30.0,F,2.0
P0015,27.0,Neutral,Yellow,Blue,Space,0.0,752.6904952398595,1.0,27.0,None,23.0,M,2.0
P0016,28.0,Neutral,Yellow,Yellow,Space,0.0,431.96439507633016,1.0,28.0,None,18.0,F,2.0
P0017,29.0,Incongruent,Red,Blue,Space,0.0,1358.8786961715514,1.0,29.0,None,24.0,M,
P0018,30.0,Incongruent,Green,Yellow,Space,0.0,529.776732501906,1.0,30.0,None,22.0,F,
P0019,31.0,Incongruent,Red,Red,Space,0.0,683.4474351615378,0.0,31.0,None,37.0,M,2.0
P0020,32.0,Neutral,Yellow,Blue,Space,1.0,325.28294081821065,1.0,32.0,None,52.0,F,2.0
P0001,33.0,Incongruent,Blue,Yellow,Space,0.0,482.72801110449257,1.0,33.0,None,36.0,M,2.0
P0002,34.0,Incongruent,Yellow,Yellow,Space,0.0,694.8205789978798,1.0,34.0,None,23.0,M,2.0
P0003,35.0,Congruent,Blue,Green,Space,1.0,204.58491039051046,1.0,35.0,None,31.0,M,2.0
P0004,36.0,Neutral,Green,Red,Space,0.0,272.13972253476754,1.0,36.0,None,38.0,M,2.0
P0005,37.0,Congruent,Blue,Blue,Space,1.0,335.17996590069663,1.0,37.0,None,44.0,M,2.0
P0006,38.0,Neutral,Red,Green,Space,0.0,651.6519139313397,0.0,38.0,None,25.0,F,2.0
P0007,39.0,Congruent,Red,Green,Space,1.0,227.4785169402192,1.0,39.0,None,20.0,M,2.0
P0008,40.0,Neutral,Blue,Yellow,Space,0.0,400.5103690675531,1.0,40.0,None,29.0,F,2.0
P0009,41.0,Neutral,Red,Red,Space,0.0,742.4083918905968,1.0,41.0,None,18.0,M,2.0
P0010,42.0,Congruent,Green,Green,Space,1.0,335.794482106928,1.0,42.0,None,56.0,F,2.0
P0011,43.0,Congruent,Blue,Green,Space,1.0,337.7683152676133,1.0,43.0,None,18.0,F,2.0
P0012,44.0,Incongruent,Blue,Green,Space,0.0,453.17965942757394,1.0,44.0,None,18.0,M,2.0
,45.0,Congruent,Green,Green,Space,1.0,184.9121092573288,,45.0,None,42.0,M,2.0
P0014,46.0,Neutral,Blue,Green,,0.0,301.8426066957843,1.0,46.0,None,30.0,F,2.0
P0015,47.0,Congruent,Blue,Blue,Space,1.0,347.631317716961,1.0,47.0,None,23.0,M,2.0
P0016,48.0,Neutral,Green,Blue,Space,1.0,447.67896010064777,1.0,48.0,None,18.0,F,2.0
P0017,1.0,Neutral,Yellow,Yellow,Space,0.0,500.5858209899511,1.0,1.0,None,24.0,M,3.0
P0018,2.0,Incongruent,Red,Green,Space,0.0,566.5618692220993,1.0,2.0,None,22.0,F,3.0
P0019,3.0,Congruent,Green,Blue,Space,1.0,165.74764520970163,1.0,3.0,None,37.0,M,3.0
P0020,4.0,Incongruent,Yellow,Green,Space,0.0,1139.0316985858242,1.0,4.0,None,52.0,F,3.0
P0001,5.0,Incongruent,Yellow,Blue,,0.0,203.31118254105553,0.0,5.0,None,36.0,,3.0
P0002,6.0,Incongruent,Green,Red,Space,0.0,500.56340505809607,1.0,6.0,None,23.0,M,3.0
P0003,7.0,Neutral,Blue,Green,Space,1.0,435.25724292645197,1.0,7.0,None,31.0,M,
P0004,8.0,Incongruent,Yellow,Green,Space,0.0,392.6330186999537,1.0,8.0,None,38.0,M,3.0
,9.0,Congruent,Blue,Blue,Space,1.0,370.4128869161621,1.0,9.0,None,44.0,M,3.0
P0006,10.0,Congruent,Green,,Space,1.0,332.4830583738524,1.0,10.0,None,25.0,F,3.0
P0007,11.0,Incongruent,Green,Green,Space,0.0,935.0378155414369,0.0,11.0,None,20.0,M,3.0
P0008,12.0,Congruent,Green,Green,Space,1.0,267.56258387573814,1.0,12.0,None,29.0,F,3.0
P0009,13.0,Congruent,Red,Blue,Space,1.0,,1.0,13.0,None,18.0,M,3.0
P0010,14.0,Neutral,Red,Red,Space,0.0,383.59866500372004,0.0,14.0,None,56.0,F,3.0
P0011,15.0,Congruent,Green,Red,Space,1.0,296.42020026666967,0.0,15.0,None,18.0,F,3.0
P0012,16.0,Congruent,Blue,Red,Space,1.0,227.3181933847058,1.0,16.0,None,,M,3.0
P0013,17.0,Congruent,Red,Blue,Space,1.0,356.25773989767055,1.0,17.0,None,42.0,M,3.0
P0014,18.0,Congruent,Green,Yellow,Space,1.0,292.91827071633696,1.0,18.0,None,30.0,F,3.0
P0015,19.0,Incongruent,Blue,Green,Space,0.0,930.1736692234406,1.0,19.0,None,23.0,M,3.0
P0016,20.0,Incongruent,Yellow,Green,Space,0.0,659.5617656114069,1.0,20.0,None,18.0,F,3.0
P0017,21.0,Neutral,Yellow,Blue,Space,0.0,271.34009307042265,1.0,21.0,None,24.0,M,3.0
P0018,22.0,Neutral,,Red,Space,0.0,610.0392326892934,1.0,22.0,None,22.0,F,3.0
P0019,23.0,Neutral,Green,Green,Space,0.0,412.89406250292143,1.0,23.0,None,37.0,M,3.0
P0020,24.0,Neutral,Green,Green,Space,0.0,454.842585604701,1.0,24.0,None,52.0,F,3.0
P0001,25.0,Incongruent,Green,Green,Space,0.0,689.6111299570075,1.0,,None,36.0,M,3.0
P0002,26.0,Incongruent,Blue,Blue,Space,,350.5663210146432,1.0,26.0,None,23.0,M,3.0
P0003,27.0,Neutral,Red,Red,,0.0,404.20357344260117,0.0,27.0,None,31.0,M,3.0
P0004,28.0,Congruent,Green,Green,Space,1.0,257.5617064190112,1.0,28.0,None,38.0,M,3.0
P0005,29.0,Neutral,Red,Blue,Space,1.0,288.64793902265535,1.0,29.0,None,44.0,M,3.0
P0006,30.0,Incongruent,Red,Red,Space,0.0,504.811669778977,1.0,30.0,None,25.0,F,3.0
P0007,31.0,Neutral,Red,Yellow,Space,0.0,291.82300367568115,1.0,,None,20.0,M,3.0
P0008,32.0,Congruent,Blue,Green,Space,1.0,,1.0,32.0,None,29.0,F,3.0
P0009,33.0,Congruent,Red,Red,Space,1.0,295.4979573771093,1.0,33.0,None,18.0,M,3.0
P0010,34.0,Incongruent,Blue,Red,Space,0.0,897.8290421868179,0.0,34.0,None,56.0,F,3.0
P0011,35.0,Neutral,Blue,Blue,Space,0.0,210.40297568269938,1.0,35.0,None,18.0,F,3.0
P0012,36.0,Neutral,Yellow,Blue,Space,0.0,324.9336778763371,1.0,36.0,None,18.0,M,3.0
P0013,37.0,Neutral,Green,Yellow,Space,0.0,611.6704283226084,1.0,37.0,None,42.0,M,3.0
P0014,38.0,Neutral,Blue,Green,Space,0.0,282.1223907012296,1.0,38.0,None,30.0,F,3.0
P0015,39.0,Incongruent,Yellow,Green,Space,0.0,1442.1571135740624,1.0,39.0,None,23.0,M,3.0
P0016,40.0,Congruent,Green,Green,Space,1.0,274.5470677386058,1.0,40.0,None,,F,3.0
P0017,41.0,Congruent,Yellow,Red,Space,1.0,203.69712118481957,1.0,41.0,None,24.0,M,3.0
P0018,42.0,Neutral,Green,Red,Space,0.0,715.1480993368576,0.0,42.0,None,22.0,F,3.0
P0019,43.0,Incongruent,Green,Red,Space,0.0,634.5420823882044,0.0,43.0,None,37.0,M,3.0
P0020,44.0,Neutral,Red,Red,Space,1.0,357.27279713867864,1.0,44.0,None,52.0,F,3.0
P0001,45.0,Neutral,Red,,Space,1.0,422.93658324447637,1.0,45.0,None,36.0,M,3.0
P0002,46.0,Congruent,Blue,Yellow,Space,1.0,232.97542896069876,1.0,46.0,None,23.0,M,3.0
P0003,47.0,Congruent,Yellow,Green,Space,1.0,124.43392228504223,1.0,47.0,,31.0,M,3.0
P0004,48.0,Congruent,Green,Yellow,Space,1.0,287.16281602689514,1.0,48.0,None,38.0,M,3.0
P0005,1.0,Incongruent,Red,Yellow,Space,0.0,1000.4111135909802,1.0,1.0,None,44.0,M,1.0
P0006,2.0,Congruent,Blue,Red,Space,1.0,137.86359202554303,1.0,2.0,None,25.0,F,1.0
P0007,3.0,Incongruent,,Blue,Space,0.0,253.04750248863516,1.0,3.0,None,20.0,M,1.0
P0008,4.0,Neutral,Blue,Red,Space,1.0,309.89794836852843,1.0,4.0,None,29.0,F,1.0
P0009,5.0,Neutral,Green,Blue,Space,1.0,389.2293563595093,1.0,5.0,None,18.0,M,1.0
P0010,6.0,Incongruent,Green,Red,Space,0.0,424.0820770202829,0.0,6.0,None,56.0,F,1.0
P0011,7.0,Neutral,Green,Blue,Space,1.0,396.8122653007054,1.0,7.0,None,18.0,F,1.0
P0012,8.0,Congruent,Green,Red,Space,1.0,261.3356241696974,1.0,8.0,None,18.0,M,1.0
P0013,9.0,Incongruent,,Green,Space,0.0,488.82669155305103,1.0,9.0,None,42.0,M,1.0
P0014,10.0,Congruent,Blue,Green,Space,1.0,311.5606472813295,1.0,10.0,None,30.0,F,1.0
P0015,11.0,Incongruent,Yellow,Yellow,Space,0.0,576.2028308104034,1.0,11.0,None,23.0,M,1.0
P0016,12.0,Congruent,Blue,Blue,Space,1.0,209.60074006030962,0.0,12.0,None,18.0,F,1.0
P0017,13.0,Incongruent,Yellow,Green,Space,0.0,741.8552036715057,0.0,13.0,None,24.0,M,1.0
P0018,14.0,Incongruent,Green,Blue,Space,0.0,605.269462487261,0.0,14.0,None,22.0,F,1.0
P0019,15.0,Incongruent,Blue,Green,Space,0.0,748.1769299473068,0.0,15.0,None,37.0,M,1.0
P0020,16.0,Neutral,Blue,Blue,Space,0.0,333.41973084880186,,16.0,None,52.0,F,1.0
P0001,17.0,Neutral,Blue,Red,Space,1.0,499.1865164038576,1.0,17.0,None,36.0,M,1.0
P0002,18.0,Incongruent,Green,Red,Space,0.0,688.7964332716025,0.0,18.0,None,23.0,M,1.0
P0003,19.0,Neutral,Yellow,Green,Space,1.0,409.500659671815,0.0,19.0,None,31.0,M,1.0
P0004,20.0,Congruent,Green,Blue,Space,1.0,331.57878401007173,1.0,20.0,None,38.0,M,1.0
P0005,21.0,Neutral,Red,Red,Space,1.0,291.3963899855151,1.0,21.0,None,44.0,M,1.0
P0006,22.0,Neutral,Blue,Green,,1.0,,1.0,22.0,None,25.0,F,1.0
P0007,23.0,Neutral,Yellow,Blue,Space,0.0,249.06695308924762,1.0,23.0,None,20.0,M,1.0
P0008,24.0,Congruent,Green,Yellow,Space,1.0,333.23323113663696,1.0,24.0,None,,F,1.0
P0009,25.0,Congruent,Yellow,Green,Space,1.0,346.0776403352763,1.0,25.0,None,18.0,M,1.0
P0010,26.0,Neutral,Yellow,Green,Space,0.0,420.5762730734356,0.0,26.0,None,56.0,F,1.0
P0011,27.0,Neutral,,Yellow,Space,1.0,315.87317266806366,1.0,27.0,None,18.0,F,1.0
P0012,28.0,Incongruent,Blue,Green,Space,0.0,337.1623152687393,1.0,28.0,None,18.0,,1.0
P0013,29.0,Incongruent,Red,Green,Space,0.0,1019.8809876324276,0.0,29.0,None,42.0,M,1.0
P0014,30.0,Congruent,Blue,Green,Space,1.0,154.3233609875908,1.0,30.0,None,30.0,F,1.0
P0015,31.0,Congruent,Red,Blue,Space,1.0,267.8602803635767,1.0,31.0,None,23.0,M,1.0
P0016,32.0,Neutral,Red,Blue,Space,1.0,322.69357088271084,1.0,32.0,None,18.0,F,1.0
P0017,33.0,Neutral,Yellow,Green,Space,0.0,394.94482822228844,1.0,33.0,None,24.0,M,1.0
P0018,34.0,Neutral,Green,Yellow,Space,1.0,272.9263974672423,0.0,34.0,None,22.0,F,1.0
P0019,35.0,Incongruent,Green,Red,Space,0.0,,1.0,35.0,None,37.0,M,1.0
P0020,36.0,Congruent,Yellow,Blue,Space,1.0,538.6827898384711,1.0,36.0,None,52.0,F,1.0
P0001,37.0,Neutral,Green,Green,Space,1.0,177.28899901973043,1.0,37.0,None,36.0,M,1.0
P0002,38.0,Neutral,Green,Blue,Space,0.0,502.49627024450376,1.0,38.0,None,23.0,M,1.0
,,Congruent,Green,Green,Space,1.0,244.03470141784462,1.0,39.0,None,31.0,M,1.0
P0004,40.0,Congruent,Blue,Green,Space,1.0,290.46252998496163,1.0,40.0,None,38.0,M,1.0
P0005,41.0,Congruent,Yellow,Yellow,Space,1.0,223.0056964001323,1.0,41.0,None,44.0,M,1.0
P0006,42.0,Congruent,Blue,Green,Space,1.0,215.70117869166057,1.0,42.0,None,25.0,F,1.0
P0007,43.0,Incongruent,,Yellow,Space,0.0,545.5160566597576,1.0,43.0,None,20.0,M,1.0
P0008,,Neutral,,Blue,Space,0.0,434.67817902499695,1.0,,None,29.0,F,1.0
P0009,45.0,,Yellow,Yellow,Space,0.0,493.1593635133189,1.0,45.0,None,18.0,M,1.0
P0010,46.0,Congruent,Blue,Red,Space,1.0,162.87784997287534,1.0,46.0,None,56.0,F,1.0
P0011,47.0,Incongruent,Green,Yellow,Space,0.0,452.0231963040678,1.0,47.0,None,18.0,F,1.0
P0012,48.0,Neutral,Red,Yellow,Space,0.0,380.1089484741828,1.0,48.0,None,18.0,M,1.0
P0013,1.0,Neutral,Red,Red,Space,1.0,401.91477033795206,1.0,1.0,None,42.0,M,2.0
P0014,2.0,Congruent,Yellow,Blue,Space,1.0,151.94342384897493,1.0,2.0,None,30.0,F,2.0
P0015,3.0,Congruent,Blue,Yellow,Space,1.0,480.0346423471631,1.0,3.0,None,23.0,M,2.0
P0016,4.0,Neutral,Green,Red,Space,0.0,336.4262330414589,0.0,4.0,None,18.0,F,2.0
P0017,5.0,Incongruent,Green,Green,Space,0.0,618.2824998965085,1.0,5.0,None,24.0,M,2.0
P0018,6.0,Congruent,Yellow,Blue,Space,1.0,260.0158618507383,1.0,6.0,None,22.0,F,2.0
P0019,7.0,Incongruent,Red,Red,Space,0.0,1199.6653369746855,0.0,7.0,None,37.0,M,2.0
P0020,8.0,Neutral,Yellow,Yellow,Space,1.0,517.4130814031671,1.0,,None,52.0,F,2.0
P0001,9.0,Congruent,Green,Green,Space,1.0,256.39140490725305,1.0,9.0,None,36.0,M,2.0
P0002,10.0,Neutral,Red,,Space,1.0,578.8871151745283,1.0,10.0,None,23.0,M,2.0
P0003,11.0,Incongruent,Green,Green,Space,0.0,527.213184571794,1.0,11.0,None,31.0,M,2.0
P0004,12.0,Congruent,Blue,Yellow,,1.0,142.44121286047135,0.0,12.0,None,38.0,M,2.0
P0005,13.0,Neutral,Yellow,Red,Space,0.0,324.12311436755476,1.0,13.0,None,44.0,M,2.0
P0006,14.0,Congruent,Green,Red,Space,1.0,251.56231982477928,1.0,14.0,,25.0,F,2.0
P0007,15.0,Neutral,Green,Yellow,Space,0.0,351.74685698901294,1.0,15.0,None,20.0,M,2.0
P0008,16.0,Congruent,Red,Yellow,Space,1.0,252.93391424598795,1.0,16.0,None,29.0,F,2.0
P0009,17.0,Neutral,Yellow,Yellow,Space,0.0,773.7615037601103,1.0,17.0,None,18.0,M,2.0
P0010,18.0,Neutral,Blue,Yellow,Space,1.0,457.27542688387797,1.0,18.0,None,56.0,F,2.0
P0011,19.0,Incongruent,Blue,Blue,Space,0.0,1921.0588545035193,0.0,19.0,None,18.0,F,2.0
P0012,,Congruent,Blue,,Space,1.0,164.34597845577957,1.0,20.0,None,18.0,M,2.0
P0013,21.0,Congruent,Red,,Space,1.0,328.7428050592026,1.0,21.0,None,42.0,M,2.0
P0014,22.0,Neutral,Yellow,Blue,Space,1.0,354.89225737412124,1.0,22.0,None,30.0,F,2.0
P0015,23.0,Congruent,Green,Blue,Space,1.0,148.29175018191236,1.0,23.0,None,23.0,M,2.0
P0016,24.0,Neutral,Blue,Green,Space,0.0,185.02221429031852,1.0,24.0,None,18.0,,2.0
P0017,25.0,Congruent,Blue,Blue,Space,1.0,212.27084730800348,0.0,25.0,None,24.0,M,2.0
P0018,26.0,Congruent,Yellow,Red,Space,1.0,325.76842596603234,1.0,26.0,None,22.0,F,2.0
P0019,27.0,Incongruent,Green,Red,Space,0.0,684.0610432421395,1.0,27.0,None,37.0,M,2.0
P0020,28.0,Neutral,Blue,Red,Space,0.0,251.13557926785168,1.0,28.0,None,52.0,F,2.0
P0001,29.0,Congruent,Green,Green,Space,1.0,277.4977523423868,1.0,29.0,None,36.0,M,2.0
P0002,30.0,Neutral,Blue,Blue,Space,0.0,242.55742575251816,0.0,30.0,None,23.0,M,2.0
P0003,31.0,Incongruent,Yellow,Red,Space,0.0,615.793481582594,1.0,31.0,None,31.0,M,2.0
P0004,32.0,Congruent,Red,Blue,Space,1.0,168.24933002102304,1.0,32.0,None,38.0,M,2.0
P0005,33.0,Neutral,Yellow,Green,Space,0.0,549.0873959589153,1.0,33.0,None,44.0,M,2.0
P0006,34.0,Neutral,Green,Red,Space,1.0,412.53982916050523,1.0,34.0,None,25.0,F,2.0
P0007,35.0,Congruent,Green,Blue,Space,1.0,207.18146032880114,1.0,35.0,None,20.0,M,2.0
P0008,,Incongruent,Blue,Red,Space,0.0,896.2808055534873,0.0,36.0,None,29.0,F,2.0
P0009,37.0,Congruent,Yellow,Green,Space,1.0,251.22729624970205,1.0,37.0,None,18.0,M,2.0
P0010,38.0,Incongruent,Blue,Green,Space,0.0,571.05716233796,1.0,38.0,None,56.0,F,2.0
P0011,39.0,Incongruent,Green,Red,Space,0.0,550.0894090686686,1.0,39.0,None,18.0,F,2.0
P0012,40.0,Incongruent,Red,Yellow,Space,0.0,1081.2171370453002,1.0,40.0,None,18.0,M,2.0
P0013,41.0,Congruent,Red,Red,Space,1.0,234.95108251220017,1.0,41.0,None,42.0,M,2.0
P0014,,Neutral,Red,Blue,Space,1.0,354.0135136069082,1.0,42.0,None,30.0,F,2.0
P0015,43.0,Incongruent,Blue,Blue,Space,0.0,596.1415968484273,0.0,43.0,None,23.0,M,2.0
P0016,44.0,Congruent,Green,Red,Space,1.0,327.74891327980447,1.0,44.0,None,18.0,F,2.0
P0017,45.0,Neutral,Red,Yellow,Space,0.0,351.14599602734097,1.0,45.0,None,24.0,M,2.0
P0018,46.0,Neutral,Yellow,Yellow,Space,1.0,431.8007777476912,0.0,46.0,None,22.0,F,2.0
P0019,47.0,Congruent,Red,Green,Space,1.0,216.51946020346927,1.0,47.0,None,37.0,M,2.0
P0020,48.0,Incongruent,Green,Red,Space,0.0,798.874040640906,1.0,48.0,None,52.0,F,2.0
P0001,1.0,Neutral,Blue,Red,Space,0.0,238.98379565511777,1.0,1.0,None,36.0,M,3.0
P0002,2.0,Congruent,Red,Red,Space,1.0,238.8527084917328,1.0,2.0,None,23.0,M,3.0
P0003,3.0,Congruent,Red,Yellow,Space,1.0,175.45975957367503,1.0,3.0,None,31.0,M,3.0
P0004,4.0,Neutral,Red,Yellow,Space,1.0,233.58402445265418,1.0,4.0,None,38.0,M,3.0
P0005,5.0,Congruent,Yellow,Blue,Space,1.0,222.34985083840144,1.0,5.0,None,44.0,M,3.0
P0006,6.0,Incongruent,Green,Red,Space,0.0,702.6498237048254,1.0,,None,25.0,F,3.0
P0007,7.0,Incongruent,Green,Blue,,,367.4510242424592,1.0,7.0,None,20.0,M,3.0
P0008,8.0,Incongruent,Blue,Blue,Space,0.0,597.9992345962899,0.0,8.0,None,29.0,F,3.0
P0009,9.0,Incongruent,Yellow,Red,Space,0.0,729.5124128389789,1.0,9.0,None,18.0,M,3.0
P0010,10.0,Incongruent,Red,Green,Space,0.0,585.8756204046693,1.0,10.0,None,56.0,F,3.0
P0011,11.0,Neutral,Green,Red,Space,1.0,386.5680411130537,1.0,11.0,None,18.0,F,3.0
P0012,12.0,Neutral,Red,Yellow,Space,1.0,352.15967223596357,1.0,12.0,,18.0,M,3.0
P0013,13.0,Neutral,Yellow,Yellow,Space,1.0,381.4911146101347,1.0,13.0,None,42.0,M,3.0
P0014,14.0,Incongruent,Red,Yellow,Space,0.0,1024.7025484543146,1.0,14.0,None,30.0,F,3.0
P0015,15.0,Neutral,Green,Green,Space,1.0,243.92250292477527,1.0,15.0,None,23.0,M,
P0016,16.0,Neutral,Green,Yellow,Space,1.0,226.35395287803667,1.0,16.0,None,18.0,F,3.0
P0017,17.0,,Blue,Blue,Space,1.0,247.61598807062254,1.0,17.0,None,24.0,M,3.0
P0018,18.0,Neutral,Blue,Green,Space,1.0,207.12069478671074,1.0,18.0,None,22.0,F,3.0
P0019,19.0,Congruent,Yellow,Green,Space,1.0,329.6830035157478,1.0,19.0,None,37.0,M,3.0
P0020,20.0,Congruent,Red,Blue,Space,1.0,291.8302482019801,1.0,20.0,None,52.0,F,3.0
P0001,21.0,Neutral,Yellow,Yellow,Space,0.0,291.0618267464894,,21.0,None,36.0,M,3.0
P0002,22.0,Neutral,Green,Blue,Space,0.0,187.43297370037698,1.0,22.0,None,23.0,M,3.0
P0003,23.0,Neutral,Red,Blue,Space,1.0,389.66557580711384,1.0,23.0,None,31.0,M,3.0
P0004,24.0,Neutral,Yellow,Blue,Space,1.0,607.2046979106254,1.0,24.0,None,,M,3.0
P0005,25.0,Neutral,Green,Yellow,Space,1.0,524.6262489772947,1.0,25.0,None,44.0,M,3.0
P0006,26.0,Incongruent,Red,Green,Space,0.0,360.634062674876,1.0,26.0,None,25.0,F,3.0
P0007,27.0,Congruent,Green,Yellow,Space,1.0,200.62524456713444,1.0,27.0,None,20.0,M,3.0
P0008,28.0,Neutral,Blue,Yellow,Space,0.0,287.0181740903799,0.0,28.0,None,29.0,F,
P0009,29.0,Congruent,Yellow,Yellow,Space,1.0,200.04774445522648,1.0,29.0,None,18.0,M,3.0
P0010,30.0,Neutral,Red,Red,Space,0.0,283.9113320180679,1.0,30.0,None,56.0,F,3.0
P0011,31.0,Incongruent,Green,Yellow,Space,0.0,677.7323819100883,1.0,31.0,None,18.0,F,3.0
P0012,32.0,Neutral,Blue,Blue,Space,1.0,522.2140695786414,1.0,32.0,None,18.0,M,3.0
P0013,33.0,Neutral,,Yellow,Space,1.0,384.4991031759815,1.0,33.0,None,42.0,M,3.0
P0014,34.0,Neutral,Green,Green,Space,1.0,451.6325204249825,,34.0,None,30.0,F,3.0
P0015,35.0,Incongruent,Yellow,Red,Space,0.0,499.6275130795517,1.0,35.0,None,23.0,M,3.0
P0016,36.0,Incongruent,Green,Yellow,Space,0.0,610.6270044357009,0.0,36.0,None,18.0,F,3.0
P0017,37.0,Neutral,Red,Red,Space,1.0,272.70804480931196,1.0,,None,24.0,M,3.0
P0018,38.0,Incongruent,Blue,Red,Space,0.0,765.7965539538006,1.0,38.0,None,22.0,F,3.0
P0019,39.0,Congruent,Yellow,Red,Space,1.0,462.57358850574985,,39.0,None,37.0,M,3.0
P0020,40.0,Incongruent,Blue,Red,Space,0.0,531.7166412396581,0.0,40.0,None,52.0,F,3.0
